Monthly Average Facular and Sunspot Indices from calc_spot_fac_cycle_history.pro
Spot Index is Sunspot Blocking Function with Area-Independent Contrast
Facular Index is on GOME Mg index scale
Mon Jun 15 10:20:21 2015
  YEAR  MONTH        SPOTAV          FACAV-CYCLE
  1882     1        505.2106        0.15546908
  1882     2        975.1804        0.15673034
  1882     3       1352.6442        0.15698703
  1882     4       2517.9660        0.15777173
  1882     5       2104.8058        0.15593211
  1882     6        927.4523        0.15471086
  1882     7        694.1440        0.15494143
  1882     8        925.1323        0.15463650
  1882     9       1350.8190        0.15512785
  1882    10       1933.2087        0.15562676
  1882    11       2770.4887        0.15683224
  1882    12        476.8252        0.15547475
  1883     1       1054.9451        0.15584773
  1883     2        948.4092        0.15542047
  1883     3        754.6338        0.15527206
  1883     4       1481.7003        0.15652848
  1883     5        370.8174        0.15533031
  1883     6       1775.8158        0.15616884
  1883     7       2409.9657        0.15690633
  1883     8        716.1058        0.15601250
  1883     9       1427.8067        0.15666819
  1883    10       2000.4501        0.15765968
  1883    11       2022.3264        0.15905957
  1883    12       1638.9594        0.15879257
  1884     1       1908.6837        0.15975136
  1884     2       1804.6265        0.15970949
  1884     3       1572.1856        0.15948405
  1884     4       1880.3472        0.15825411
  1884     5       1401.8545        0.15793167
  1884     6        618.6085        0.15721227
  1884     7        717.9752        0.15647206
  1884     8        862.7967        0.15643629
  1884     9       1317.6950        0.15665366
  1884    10       1220.7337        0.15585129
  1884    11        543.9131        0.15521270
  1884    12       1114.9476        0.15588087
  1885     1        649.6826        0.15595653
  1885     2       1338.8460        0.15692187
  1885     3        945.4103        0.15567147
  1885     4       1069.0245        0.15575576
  1885     5       1271.5158        0.15765710
  1885     6       2132.5784        0.15759586
  1885     7       1321.2369        0.15689430
  1885     8        742.1639        0.15569675
  1885     9        783.0957        0.15509445
  1885    10        818.3050        0.15477962
  1885    11        524.9544        0.15425651
  1885    12        253.8223        0.15349385
  1886     1        660.9897        0.15338229
  1886     2        384.6093        0.15359544
  1886     3       1266.1125        0.15494740
  1886     4        706.6820        0.15460340
  1886     5        797.2243        0.15360515
  1886     6        435.8879        0.15351799
  1886     7        543.3474        0.15322831
  1886     8        141.0715        0.15278668
  1886     9        259.6605        0.15262018
  1886    10         76.2289        0.15162103
  1886    11          2.5099        0.15097758
  1886    12        245.9063        0.15158874
  1887     1        108.1517        0.15179625
  1887     2         83.6714        0.15199324
  1887     3         27.5059        0.15149782
  1887     4         55.7108        0.15153756
  1887     5        307.5952        0.15228835
  1887     6        354.5380        0.15257233
  1887     7        386.0630        0.15272129
  1887     8        210.5515        0.15244844
  1887     9        178.5025        0.15149398
  1887    10         83.1794        0.15143011
  1887    11         52.3995        0.15147120
  1887    12        682.1128        0.15194306
  1888     1        153.0741        0.15200307
  1888     2        117.8637        0.15133396
  1888     3        115.7191        0.15125880
  1888     4         26.7924        0.15129768
  1888     5        218.1035        0.15115382
  1888     6         50.2760        0.15119094
  1888     7         24.1726        0.15111126
  1888     8         60.5373        0.15132096
  1888     9        137.8616        0.15156133
  1888    10         10.0190        0.15108108
  1888    11        309.7131        0.15134455
  1888    12        107.3148        0.15120502
  1889     1          4.0031        0.15078403
  1889     2         45.6920        0.15099003
  1889     3         27.6352        0.15121426
  1889     4         34.9931        0.15098673
  1889     5          9.9479        0.15083226
  1889     6        260.0671        0.15116637
  1889     7        188.8759        0.15169179
  1889     8        319.7234        0.15201498
  1889     9        100.3649        0.15137875
  1889    10         14.3369        0.15089468
  1889    11          0.0000        0.15070056
  1889    12         56.4307        0.15104304
  1890     1         37.3467        0.15114058
  1890     2          1.2063        0.15082216
  1890     3         64.8183        0.15091213
  1890     4         13.8597        0.15094772
  1890     5         26.7427        0.15124478
  1890     6          9.4167        0.15108272
  1890     7        137.9410        0.15158019
  1890     8        231.8530        0.15176246
  1890     9        267.1404        0.15219981
  1890    10        260.1836        0.15168392
  1890    11        245.5408        0.15143508
  1890    12         82.1578        0.15169544
  1891     1        227.9370        0.15233237
  1891     2        334.7884        0.15318131
  1891     3        138.6108        0.15285903
  1891     4        405.3093        0.15380305
  1891     5        653.0880        0.15554169
  1891     6        738.7312        0.15599155
  1891     7       1102.0728        0.15607071
  1891     8        515.2281        0.15574060
  1891     9       1395.3982        0.15591959
  1891    10        757.4047        0.15611318
  1891    11        758.4077        0.15560624
  1891    12        563.5205        0.15529454
  1892     1       1295.3538        0.15746558
  1892     2       2114.3939        0.15743803
  1892     3        813.4520        0.15665377
  1892     4       1109.1870        0.15782130
  1892     5       1801.4163        0.15855342
  1892     6       1236.0616        0.15913233
  1892     7       2167.3458        0.15840137
  1892     8       1695.1613        0.15951638
  1892     9       1098.3208        0.15809765
  1892    10       1092.0821        0.15770254
  1892    11       1099.6984        0.15742412
  1892    12       1040.0614        0.15884330
  1893     1       1442.0565        0.15818754
  1893     2       1420.8883        0.15782998
  1893     3       1086.3967        0.15855063
  1893     4       1407.9376        0.16025697
  1893     5       1319.3461        0.16132829
  1893     6       1631.6300        0.16111761
  1893     7       1800.0323        0.16150137
  1893     8       2736.5926        0.16313182
  1893     9       2071.8438        0.16060693
  1893    10       1707.2411        0.16089522
  1893    11       1619.4360        0.16021135
  1893    12       2348.3476        0.16044181
  1894     1       1872.8251        0.16245826
  1894     2       1711.6526        0.16144712
  1894     3        741.4829        0.15939244
  1894     4       1876.2195        0.15996014
  1894     5       2036.5895        0.16145425
  1894     6       2193.9758        0.16247168
  1894     7       2040.2230        0.16262987
  1894     8       1442.3590        0.16005792
  1894     9        772.6368        0.15946799
  1894    10       1471.2824        0.15859319
  1894    11        716.9901        0.15841754
  1894    12       1153.7087        0.15822963
  1895     1       1116.4529        0.15853421
  1895     2       1078.2077        0.15942233
  1895     3       1242.4932        0.15892429
  1895     4       1209.2059        0.15919519
  1895     5       1026.9688        0.15860725
  1895     6       1356.1147        0.15845552
  1895     7        509.6281        0.15779888
  1895     8       1681.7523        0.15776302
  1895     9       1024.0531        0.15721161
  1895    10       1543.5273        0.15703406
  1895    11        854.8109        0.15718313
  1895    12       1228.1229        0.15805062
  1896     1        308.3755        0.15593955
  1896     2        986.4575        0.15599806
  1896     3        634.8643        0.15575594
  1896     4        528.7845        0.15518916
  1896     5        264.1846        0.15400663
  1896     6        999.9731        0.15475222
  1896     7        594.9618        0.15517688
  1896     8        348.2738        0.15408921
  1896     9       1390.6171        0.15488566
  1896    10        375.1985        0.15447207
  1896    11        671.6293        0.15484382
  1896    12        727.2960        0.15521183
  1897     1       1604.0723        0.15514808
  1897     2       1132.7703        0.15473834
  1897     3        598.5056        0.15481250
  1897     4        431.6224        0.15473636
  1897     5        541.1547        0.15320535
  1897     6        222.9305        0.15274664
  1897     7        222.5477        0.15389945
  1897     8        519.0787        0.15393148
  1897     9        884.2656        0.15489393
  1897    10        114.8525        0.15334489
  1897    11         36.5399        0.15226569
  1897    12        825.9667        0.15365291
  1898     1        488.1528        0.15463397
  1898     2        710.1106        0.15434430
  1898     3        778.5809        0.15378661
  1898     4        186.1029        0.15274616
  1898     5        274.5516        0.15329090
  1898     6         87.1387        0.15298968
  1898     7         65.7139        0.15227640
  1898     8        606.6335        0.15343852
  1898     9       1023.6165        0.15344572
  1898    10        779.5533        0.15390371
  1898    11        427.6213        0.15370958
  1898    12        236.2920        0.15253515
  1899     1        265.2792        0.15249169
  1899     2         66.5726        0.15190043
  1899     3        328.0552        0.15206149
  1899     4        185.9851        0.15232965
  1899     5         62.3599        0.15196176
  1899     6        280.4015        0.15232846
  1899     7        222.8812        0.15211278
  1899     8          2.0426        0.15108207
  1899     9         52.5799        0.15110760
  1899    10        108.4126        0.15144812
  1899    11         40.1203        0.15153525
  1899    12         69.3985        0.15186525
  1900     1         79.0955        0.15170640
  1900     2        137.8024        0.15177506
  1900     3        140.1374        0.15154296
  1900     4         97.6912        0.15203309
  1900     5        229.8950        0.15202276
  1900     6        139.6523        0.15185647
  1900     7         60.6168        0.15152035
  1900     8         14.5098        0.15118408
  1900     9         27.9320        0.15139515
  1900    10        157.6717        0.15142749
  1900    11         20.8791        0.15105189
  1900    12          0.0000        0.15065472
  1901     1          0.4070        0.15055945
  1901     2          6.6376        0.15066096
  1901     3         15.9543        0.15081928
  1901     4          0.0000        0.15065112
  1901     5        273.2348        0.15095766
  1901     6         58.7947        0.15118721
  1901     7          0.5819        0.15071640
  1901     8          0.0000        0.15054247
  1901     9          0.5244        0.15052069
  1901    10         15.0630        0.15072556
  1901    11         53.0216        0.15098717
  1901    12          0.0000        0.15069388
  1902     1        154.0374        0.15086562
  1902     2          0.5240        0.15065439
  1902     3        220.1617        0.15094635
  1902     4          0.0000        0.15063517
  1902     5         43.0521        0.15076094
  1902     6          4.8616        0.15073596
  1902     7          0.6101        0.15061001
  1902     8          3.8848        0.15069108
  1902     9         78.5312        0.15119675
  1902    10        199.8667        0.15165559
  1902    11        170.5669        0.15121355
  1902    12          4.3285        0.15085427
  1903     1         37.1357        0.15142302
  1903     2        138.4746        0.15243654
  1903     3        193.0450        0.15226058
  1903     4        389.3289        0.15294188
  1903     5         87.2450        0.15265492
  1903     6        140.2025        0.15264057
  1903     7        319.9079        0.15323097
  1903     8        149.1684        0.15330564
  1903     9         67.6884        0.15249148
  1903    10       1236.0989        0.15337254
  1903    11       1024.4070        0.15459185
  1903    12        629.5721        0.15587631
  1904     1        452.7160        0.15446360
  1904     2        452.5647        0.15373005
  1904     3        418.5690        0.15503742
  1904     4       1115.5843        0.15556039
  1904     5        287.6217        0.15601599
  1904     6        424.0776        0.15558171
  1904     7        610.7164        0.15595520
  1904     8        672.9608        0.15584850
  1904     9        248.9597        0.15517805
  1904    10        752.7066        0.15624512
  1904    11        424.9696        0.15621744
  1904    12        878.1613        0.15743441
  1905     1       1198.2060        0.15778374
  1905     2       2482.8572        0.15814525
  1905     3       1666.0256        0.15601964
  1905     4        523.1176        0.15556936
  1905     5        828.7711        0.15594106
  1905     6        843.5264        0.15638598
  1905     7       1743.3268        0.15704699
  1905     8       1284.4170        0.15760005
  1905     9        800.5000        0.15762358
  1905    10       2565.6356        0.15740243
  1905    11       2311.9928        0.15943019
  1905    12        911.5541        0.15799499
  1906     1        916.3634        0.15630719
  1906     2        476.0369        0.15560162
  1906     3       1248.7035        0.15721121
  1906     4        811.2048        0.15698168
  1906     5       1233.9546        0.15683845
  1906     6        824.0272        0.15791730
  1906     7       1843.6749        0.16095906
  1906     8        832.0743        0.15747835
  1906     9        647.9176        0.15672590
  1906    10         82.1261        0.15399695
  1906    11        685.7640        0.15504931
  1906    12       1269.0413        0.15749413
  1907     1       1428.6132        0.15931033
  1907     2       2931.4444        0.15996386
  1907     3        973.7311        0.15864134
  1907     4        806.2640        0.15658828
  1907     5        703.8189        0.15513875
  1907     6       1110.5627        0.15467888
  1907     7       1033.5125        0.15537570
  1907     8        852.5456        0.15744254
  1907     9       1648.1667        0.15892306
  1907    10       1396.7198        0.15847703
  1907    11       1242.2621        0.15743421
  1907    12       1218.6506        0.15638359
  1908     1        554.9354        0.15622289
  1908     2        292.7338        0.15576600
  1908     3        258.1290        0.15567603
  1908     4        820.3795        0.15700149
  1908     5        547.0547        0.15697783
  1908     6        866.3232        0.15662390
  1908     7        369.7773        0.15632792
  1908     8       2122.9998        0.15739486
  1908     9       2082.5899        0.15798304
  1908    10        425.6903        0.15599264
  1908    11        949.1934        0.15560752
  1908    12        679.0937        0.15575676
  1909     1       1492.1280        0.15664040
  1909     2        895.7349        0.15641274
  1909     3       1226.3314        0.15660326
  1909     4        617.5385        0.15521012
  1909     5        606.9244        0.15447766
  1909     6        315.0651        0.15389731
  1909     7        711.1959        0.15427501
  1909     8        161.0259        0.15448492
  1909     9        757.9864        0.15493613
  1909    10       1021.0671        0.15669573
  1909    11       1007.4067        0.15696889
  1909    12       1005.8078        0.15673455
  1910     1        490.1272        0.15518457
  1910     2        801.3531        0.15399262
  1910     3        299.8354        0.15328509
  1910     4         63.0720        0.15252498
  1910     5        398.3750        0.15320879
  1910     6         87.3732        0.15253093
  1910     7        230.8114        0.15245485
  1910     8        217.1616        0.15243154
  1910     9        424.1144        0.15332609
  1910    10        661.5967        0.15367230
  1910    11         39.4349        0.15194212
  1910    12         40.9617        0.15136133
  1911     1         46.1505        0.15125686
  1911     2         93.3230        0.15151296
  1911     3         99.2774        0.15190347
  1911     4        301.4856        0.15277259
  1911     5        113.9383        0.15224428
  1911     6         30.5365        0.15136960
  1911     7         20.6575        0.15122811
  1911     8         36.4072        0.15117897
  1911     9         70.5848        0.15105682
  1911    10         27.2950        0.15092688
  1911    11         75.4981        0.15101285
  1911    12         18.3546        0.15084593
  1912     1          0.0000        0.15060059
  1912     2          0.0000        0.15062351
  1912     3         69.2307        0.15094601
  1912     4         82.5040        0.15086403
  1912     5         27.6988        0.15097004
  1912     6         86.5731        0.15114980
  1912     7         15.5303        0.15089318
  1912     8          0.2746        0.15079215
  1912     9         59.8149        0.15123527
  1912    10         71.8255        0.15090955
  1912    11          3.7621        0.15070456
  1912    12        109.2350        0.15094751
  1913     1         12.6573        0.15084395
  1913     2         25.4617        0.15086714
  1913     3          0.3430        0.15063580
  1913     4          5.1179        0.15061567
  1913     5          0.0000        0.15049690
  1913     6          0.0000        0.15049608
  1913     7         11.0511        0.15063679
  1913     8          0.0000        0.15052501
  1913     9          3.3861        0.15059954
  1913    10         19.1835        0.15078652
  1913    11          3.0200        0.15070278
  1913    12         28.4465        0.15077758
  1914     1         13.5209        0.15088432
  1914     2         14.7909        0.15087989
  1914     3         16.8021        0.15113245
  1914     4        335.8589        0.15188250
  1914     5         54.7454        0.15163938
  1914     6        193.7664        0.15157697
  1914     7         45.5234        0.15142947
  1914     8        325.2330        0.15163642
  1914     9        371.6504        0.15226329
  1914    10         48.5595        0.15210973
  1914    11        213.5125        0.15292069
  1914    12        352.1572        0.15391927
  1915     1        348.5025        0.15445939
  1915     2        714.4243        0.15530677
  1915     3        482.2818        0.15615514
  1915     4       1099.9843        0.15558429
  1915     5        593.1301        0.15549281
  1915     6       1168.0475        0.15664296
  1915     7       1413.9758        0.15760009
  1915     8       1174.1249        0.15752435
  1915     9        906.6955        0.15675166
  1915    10        751.1569        0.15610252
  1915    11        448.3795        0.15635555
  1915    12        372.8139        0.15609246
  1916     1        624.4005        0.15720042
  1916     2        823.2237        0.15803258
  1916     3       1101.9982        0.15798046
  1916     4        928.7840        0.15851367
  1916     5       1354.2834        0.15927874
  1916     6       1287.7620        0.15863285
  1916     7        713.9448        0.15797234
  1916     8        368.3048        0.15705207
  1916     9        468.1667        0.15721094
  1916    10        868.5936        0.15743055
  1916    11        786.3627        0.15850776
  1916    12        812.0919        0.15831926
  1917     1       1251.9030        0.15983549
  1917     2       1779.3997        0.15973041
  1917     3       1334.2855        0.16080920
  1917     4       1079.1680        0.16028633
  1917     5       1854.4576        0.16241166
  1917     6       2010.2315        0.16462936
  1917     7       1950.2903        0.16508860
  1917     8       3434.0846        0.16671561
  1917     9       2141.9859        0.16490411
  1917    10       1087.1025        0.16119206
  1917    11       1252.3752        0.16200170
  1917    12       2703.7407        0.16454358
  1918     1       1996.4976        0.16252717
  1918     2        968.2343        0.16017376
  1918     3        999.2767        0.16001248
  1918     4       1153.3734        0.16041041
  1918     5       1056.5595        0.16039972
  1918     6        688.0003        0.15984420
  1918     7       1587.2674        0.16203121
  1918     8       2033.9515        0.16162913
  1918     9       1088.7560        0.16035692
  1918    10       1468.2927        0.16064081
  1918    11       1291.0368        0.16050014
  1918    12       1250.0093        0.15840227
  1919     1        767.9381        0.15738227
  1919     2       1682.3466        0.15848594
  1919     3       1409.8354        0.15826398
  1919     4        875.1611        0.15791837
  1919     5       2011.9840        0.15979942
  1919     6       2195.7411        0.16231723
  1919     7       1035.3107        0.16095080
  1919     8       1667.1004        0.15974087
  1919     9       1217.1134        0.15823252
  1919    10        912.1262        0.15731112
  1919    11        950.2576        0.15617706
  1919    12        397.9507        0.15613240
  1920     1       1512.3329        0.15572877
  1920     2        686.2444        0.15712922
  1920     3       1704.9967        0.15652210
  1920     4        350.0456        0.15460451
  1920     5        341.9048        0.15588577
  1920     6        615.5904        0.15599848
  1920     7        482.5685        0.15502431
  1920     8        190.1234        0.15409303
  1920     9        906.1715        0.15432594
  1920    10        724.6018        0.15582559
  1920    11        713.2389        0.15467261
  1920    12        534.0560        0.15465099
  1921     1        554.7874        0.15441438
  1921     2        373.3583        0.15421208
  1921     3        461.9889        0.15422918
  1921     4        470.3883        0.15461136
  1921     5        669.0083        0.15354669
  1921     6        514.5400        0.15449701
  1921     7        748.3156        0.15485007
  1921     8        352.7551        0.15335207
  1921     9        343.6925        0.15286223
  1921    10        369.9012        0.15277898
  1921    11        591.8112        0.15267002
  1921    12        518.0392        0.15273311
  1922     1         99.8926        0.15275697
  1922     2        559.9620        0.15332938
  1922     3       1533.1332        0.15455018
  1922     4         97.5491        0.15290998
  1922     5        171.2284        0.15181018
  1922     6         18.5968        0.15161344
  1922     7        171.2534        0.15168689
  1922     8         78.6759        0.15134761
  1922     9         64.7448        0.15140230
  1922    10         41.2408        0.15154859
  1922    11        175.0759        0.15171530
  1922    12        619.0449        0.15204159
  1923     1         61.9938        0.15134177
  1923     2          2.7014        0.15084796
  1923     3         22.9822        0.15085543
  1923     4         43.8135        0.15120084
  1923     5         19.3005        0.15106281
  1923     6        117.3648        0.15133553
  1923     7         32.6361        0.15105232
  1923     8          2.5226        0.15100228
  1923     9        160.0589        0.15184550
  1923    10        146.7928        0.15209344
  1923    11        127.0341        0.15166714
  1923    12         34.6431        0.15106647
  1924     1          1.7090        0.15064607
  1924     2         93.4857        0.15076492
  1924     3         25.9631        0.15092649
  1924     4        192.2123        0.15161166
  1924     5        246.4108        0.15293142
  1924     6        457.8661        0.15324910
  1924     7        417.7536        0.15390087
  1924     8        449.3703        0.15364139
  1924     9        474.8043        0.15333515
  1924    10        498.4756        0.15353082
  1924    11        622.5551        0.15277241
  1924    12        205.1156        0.15266760
  1925     1         36.8493        0.15198833
  1925     2        380.5812        0.15313405
  1925     3        261.7634        0.15310506
  1925     4        286.3213        0.15513318
  1925     5        793.3167        0.15590228
  1925     6        688.7888        0.15662915
  1925     7        549.6560        0.15605674
  1925     8        510.9453        0.15583444
  1925     9        769.0054        0.15846805
  1925    10       1463.3670        0.15882331
  1925    11       1712.8912        0.15786333
  1925    12       3840.0001        0.16085085
  1926     1       2772.1079        0.16003720
  1926     2       2046.2672        0.15903433
  1926     3       1516.5954        0.15821063
  1926     4        436.4995        0.15728824
  1926     5       1297.8183        0.15800260
  1926     6       1510.7891        0.15875812
  1926     7        996.8755        0.15774806
  1926     8        891.5092        0.15783447
  1926     9       1391.9267        0.15793183
  1926    10       1550.2364        0.15857604
  1926    11        791.9544        0.15880796
  1926    12       1683.5938        0.15982599
  1927     1       2139.8733        0.15979555
  1927     2       1721.6480        0.16198466
  1927     3        951.8632        0.16125504
  1927     4       1584.8723        0.16175498
  1927     5       1135.7195        0.16077068
  1927     6       1047.4390        0.15836294
  1927     7        980.8787        0.15769054
  1927     8       1090.3941        0.15716926
  1927     9       1325.3302        0.15861948
  1927    10        888.1038        0.15852840
  1927    11       1263.4840        0.15809894
  1927    12        634.0529        0.15674543
  1928     1       1830.2759        0.15901040
  1928     2       1283.2251        0.15983876
  1928     3       1841.1665        0.16033339
  1928     4       1597.8737        0.16033946
  1928     5       1508.9407        0.15916550
  1928     6       1676.9253        0.16044776
  1928     7       2244.9812        0.16111064
  1928     8       1615.9198        0.16135138
  1928     9       2665.8206        0.15980808
  1928    10       1197.7004        0.15876854
  1928    11        919.2048        0.15823767
  1928    12       1277.3788        0.15787041
  1929     1       1269.6093        0.15813729
  1929     2        974.9106        0.15814854
  1929     3       1236.1019        0.15709239
  1929     4       1111.4200        0.15752901
  1929     5       1052.6718        0.15847626
  1929     6       1321.8579        0.15981386
  1929     7       1238.1285        0.16025700
  1929     8        911.0970        0.15958258
  1929     9        316.8157        0.15707385
  1929    10       1670.0418        0.15679250
  1929    11       2854.8502        0.15926982
  1929    12       3776.5095        0.16255912
  1930     1       1294.0504        0.15989537
  1930     2        781.6766        0.15807124
  1930     3        799.5350        0.15550643
  1930     4        701.5355        0.15556505
  1930     5        602.9143        0.15524807
  1930     6        371.2712        0.15485332
  1930     7        176.8859        0.15454421
  1930     8        339.0866        0.15427071
  1930     9        432.7587        0.15499970
  1930    10        897.7721        0.15420545
  1930    11        778.6944        0.15429885
  1930    12        252.4079        0.15448320
  1931     1        152.6316        0.15353564
  1931     2        987.4829        0.15437552
  1931     3        691.1314        0.15460538
  1931     4        471.3419        0.15496460
  1931     5        350.3657        0.15397911
  1931     6        209.9827        0.15297498
  1931     7        136.7711        0.15319125
  1931     8         97.9768        0.15283956
  1931     9        154.7845        0.15315027
  1931    10        109.4045        0.15234122
  1931    11        330.6901        0.15256563
  1931    12        280.7345        0.15275237
  1932     1        146.0696        0.15247097
  1932     2        177.4541        0.15199998
  1932     3        166.1981        0.15199834
  1932     4        278.2792        0.15195673
  1932     5        383.7156        0.15289252
  1932     6        417.2995        0.15295752
  1932     7        129.8483        0.15219846
  1932     8         98.2395        0.15163207
  1932     9          9.6515        0.15132998
  1932    10         80.4014        0.15170795
  1932    11        100.1089        0.15147093
  1932    12        287.4034        0.15184169
  1933     1        205.6103        0.15209309
  1933     2        739.2937        0.15211770
  1933     3        186.6872        0.15167085
  1933     4         15.2699        0.15107122
  1933     5         17.6988        0.15105529
  1933     6         53.2635        0.15111720
  1933     7          8.0093        0.15094588
  1933     8          0.4898        0.15068988
  1933     9         27.8435        0.15092725
  1933    10         56.0859        0.15082516
  1933    11          1.5296        0.15065098
  1933    12          1.2800        0.15065996
  1934     1         31.0366        0.15094330
  1934     2         62.0197        0.15147840
  1934     3         17.5579        0.15132126
  1934     4        329.0157        0.15175386
  1934     5        363.3879        0.15216669
  1934     6        122.4741        0.15166976
  1934     7        107.9195        0.15187084
  1934     8        101.3222        0.15156295
  1934     9         15.1289        0.15120959
  1934    10         14.2532        0.15143673
  1934    11         85.0488        0.15166559
  1934    12        154.6988        0.15252930
  1935     1        306.0227        0.15305102
  1935     2        225.0009        0.15311820
  1935     3        239.7854        0.15344037
  1935     4        131.6635        0.15285699
  1935     5        404.1217        0.15420403
  1935     6        792.5086        0.15539421
  1935     7        592.0480        0.15497251
  1935     8        404.2333        0.15514924
  1935     9        538.4896        0.15631188
  1935    10        916.3626        0.15838598
  1935    11       1777.9512        0.15803297
  1935    12       1847.2426        0.15801197
  1936     1       1889.8119        0.15843133
  1936     2       1294.5733        0.15971115
  1936     3       1217.0563        0.15995431
  1936     4       1227.0509        0.16025435
  1936     5        636.7964        0.15893310
  1936     6        934.8206        0.15900013
  1936     7        644.4199        0.15832197
  1936     8       1114.0158        0.16005882
  1936     9        917.8139        0.16071696
  1936    10       1279.1910        0.16182473
  1936    11       2451.8515        0.16314837
  1936    12       2056.3551        0.16475758
  1937     1       2705.9606        0.16619080
  1937     2       2534.8797        0.16662957
  1937     3       1366.9399        0.16337251
  1937     4       2676.6809        0.16282035
  1937     5       2555.9895        0.16366329
  1937     6       3186.5342        0.16452461
  1937     7       3928.0806        0.16569432
  1937     8       2736.1100        0.16598329
  1937     9       1631.4699        0.16392345
  1937    10       3100.2359        0.16299778
  1937    11       1040.6990        0.16173539
  1937    12       1474.0782        0.16085558
  1938     1       2499.0189        0.16151388
  1938     2       2157.0372        0.16215072
  1938     3       1718.7737        0.16122761
  1938     4       2550.8040        0.16235592
  1938     5       2748.1485        0.16479610
  1938     6       1617.5910        0.16417168
  1938     7       3773.9974        0.16635945
  1938     8       1734.4602        0.16545435
  1938     9       1994.9760        0.16248132
  1938    10       2237.2733        0.16244317
  1938    11       2968.1337        0.16362057
  1938    12       2161.8666        0.16238067
  1939     1       1421.3017        0.16163743
  1939     2       1217.5309        0.16076056
  1939     3        854.3696        0.16063818
  1939     4       2386.3913        0.16329176
  1939     5       1983.2142        0.16503985
  1939     6       1362.5694        0.16386010
  1939     7       2402.8261        0.16168678
  1939     8       2892.9533        0.16153928
  1939     9       3637.0441        0.16134149
  1939    10       2288.4604        0.16074312
  1939    11       1503.5315        0.15886718
  1939    12        624.3892        0.15729681
  1940     1       1426.2772        0.15670970
  1940     2       1196.2031        0.15754975
  1940     3       1746.1066        0.15928420
  1940     4        752.9891        0.15904420
  1940     5        835.8612        0.15804808
  1940     6       1565.4227        0.15923379
  1940     7        963.7512        0.15955150
  1940     8       2402.6994        0.15990354
  1940     9       1161.4544        0.15824438
  1940    10       1214.1182        0.15752207
  1940    11        753.2179        0.15827592
  1940    12       1025.4898        0.15856942
  1941     1        574.5350        0.15698913
  1941     2        608.3803        0.15658351
  1941     3        627.4635        0.15632185
  1941     4        407.7517        0.15503541
  1941     5        248.1917        0.15514257
  1941     6       1004.1635        0.15640610
  1941     7       1214.9022        0.15727867
  1941     8       1052.9014        0.15746017
  1941     9       1605.9725        0.15687378
  1941    10       1095.2903        0.15564585
  1941    11        709.0595        0.15490667
  1941    12        454.5079        0.15509262
  1942     1        467.9767        0.15523113
  1942     2       1225.7889        0.15575707
  1942     3       1128.1524        0.15614482
  1942     4       1219.1403        0.15644359
  1942     5        315.0926        0.15461153
  1942     6        108.4963        0.15270058
  1942     7        240.7068        0.15243296
  1942     8        277.8738        0.15302372
  1942     9        126.1331        0.15302788
  1942    10        237.2799        0.15308399
  1942    11        664.0723        0.15365446
  1942    12        304.6712        0.15352846
  1943     1         76.1703        0.15269339
  1943     2        790.1040        0.15283748
  1943     3        736.4792        0.15282975
  1943     4        950.2072        0.15279804
  1943     5        263.7412        0.15226638
  1943     6         48.6143        0.15187322
  1943     7        285.7083        0.15192341
  1943     8        180.2486        0.15267155
  1943     9        214.4301        0.15167412
  1943    10        299.9559        0.15152460
  1943    11        149.9083        0.15165986
  1943    12        361.7025        0.15192840
  1944     1         26.8003        0.15111264
  1944     2          0.9578        0.15084846
  1944     3        172.6098        0.15123507
  1944     4          0.2405        0.15070931
  1944     5          9.2023        0.15077698
  1944     6         43.7369        0.15119502
  1944     7         17.0241        0.15137835
  1944     8        104.5943        0.15237600
  1944     9        264.8976        0.15209946
  1944    10        185.5221        0.15254547
  1944    11        207.1411        0.15252760
  1944    12        589.7556        0.15345464
  1945     1        183.4415        0.15331312
  1945     2         90.5331        0.15266614
  1945     3        607.4526        0.15292459
  1945     4        655.1985        0.15382322
  1945     5        300.8583        0.15474561
  1945     6        432.4579        0.15519999
  1945     7        590.5929        0.15520194
  1945     8        327.3396        0.15436279
  1945     9        446.9632        0.15501911
  1945    10       1272.5102        0.15718469
  1945    11        388.5248        0.15683531
  1945    12        379.9979        0.15540034
  1946     1       1266.2258        0.15659045
  1946     2       3212.8244        0.15945969
  1946     3       1507.7502        0.16007748
  1946     4       1471.1779        0.15998728
  1946     5       1380.3324        0.16040897
  1946     6        778.0766        0.16019305
  1946     7       3390.7438        0.16120689
  1946     8       2630.7066        0.16176106
  1946     9       2161.4904        0.16226752
  1946    10       1615.3494        0.16362722
  1946    11       2196.6670        0.16419318
  1946    12       2982.4991        0.16334057
  1947     1       2639.0718        0.16399431
  1947     2       3434.6107        0.16412092
  1947     3       4159.2326        0.16496595
  1947     4       4386.2667        0.16627471
  1947     5       4339.9007        0.16923740
  1947     6       2051.7736        0.16837890
  1947     7       2801.6455        0.16821108
  1947     8       3834.7542        0.16811869
  1947     9       2391.5390        0.16795925
  1947    10       2830.3817        0.16786987
  1947    11       1943.0910        0.16657763
  1947    12       1989.7830        0.16498525
  1948     1       1201.1783        0.16441367
  1948     2       1101.8019        0.16244136
  1948     3       1366.8764        0.16271590
  1948     4       3864.3566        0.16729762
  1948     5       3650.5294        0.16657422
  1948     6       3090.9240        0.16592533
  1948     7       2105.2734        0.16514406
  1948     8       2429.5771        0.16647260
  1948     9       2222.2147        0.16499020
  1948    10       1954.5626        0.16448142
  1948    11       1170.5109        0.16310261
  1948    12       2971.2065        0.16407057
  1949     1       2495.0189        0.16475745
  1949     2       4485.5578        0.16741561
  1949     3       3729.0610        0.16790470
  1949     4       2135.4582        0.16682954
  1949     5       1448.0230        0.16427116
  1949     6       1851.2054        0.16323379
  1949     7       2066.8225        0.16387523
  1949     8       2668.3038        0.16334440
  1949     9       2611.3451        0.16476405
  1949    10       2265.7051        0.16412779
  1949    11       2639.6907        0.16466845
  1949    12       1800.8597        0.16397802
  1950     1       1616.1665        0.16203263
  1950     2       2211.9163        0.16090335
  1950     3       1763.9549        0.16213322
  1950     4       2934.5691        0.16090651
  1950     5       1763.3915        0.16074218
  1950     6       1182.6632        0.15927489
  1950     7       1398.0713        0.15903503
  1950     8       1370.8803        0.15869795
  1950     9        556.2632        0.15719317
  1950    10        646.8542        0.15668872
  1950    11        930.8808        0.15621886
  1950    12        765.6529        0.15609221
  1951     1       1029.8857        0.15558910
  1951     2        693.8094        0.15628166
  1951     3        932.7835        0.15662673
  1951     4       2026.4721        0.15778710
  1951     5       3395.7110        0.15904406
  1951     6       2918.8208        0.15808397
  1951     7        875.7569        0.15744340
  1951     8        796.4816        0.15705297
  1951     9       1230.7390        0.15782446
  1951    10        865.3543        0.15643358
  1951    11        755.1184        0.15673385
  1951    12        790.5001        0.15523745
  1952     1        584.1017        0.15456966
  1952     2        384.9189        0.15331582
  1952     3        174.7822        0.15280366
  1952     4        385.3301        0.15329806
  1952     5        243.7663        0.15364625
  1952     6        468.2755        0.15456933
  1952     7        765.2656        0.15481100
  1952     8        796.5345        0.15549435
  1952     9        368.2853        0.15408047
  1952    10        423.9533        0.15305601
  1952    11        574.2448        0.15282398
  1952    12        549.7125        0.15349432
  1953     1        362.4003        0.15274900
  1953     2         12.0613        0.15210461
  1953     3         64.1889        0.15179208
  1953     4        526.5499        0.15224934
  1953     5        179.2594        0.15209279
  1953     6        279.8519        0.15194505
  1953     7         88.6747        0.15163850
  1953     8        309.8738        0.15184565
  1953     9        170.0318        0.15203556
  1953    10         54.7532        0.15170619
  1953    11          9.8659        0.15146842
  1953    12          7.4710        0.15144694
  1954     1          1.0364        0.15138491
  1954     2          1.8074        0.15130597
  1954     3        230.8635        0.15147359
  1954     4          2.4901        0.15142653
  1954     5          1.1834        0.15126316
  1954     6          2.0104        0.15117050
  1954     7         13.1937        0.15125250
  1954     8         64.6867        0.15168682
  1954     9          1.7027        0.15139877
  1954    10         14.1969        0.15216494
  1954    11         54.9516        0.15190679
  1954    12        117.8818        0.15200620
  1955     1        549.9324        0.15350254
  1955     2        290.2154        0.15304120
  1955     3         40.2656        0.15231400
  1955     4         79.7835        0.15228557
  1955     5        360.5243        0.15310862
  1955     6        507.6219        0.15364526
  1955     7        244.2830        0.15455599
  1955     8        665.3881        0.15369700
  1955     9        442.9720        0.15506057
  1955    10       1070.8862        0.15635315
  1955    11       1705.4235        0.15920923
  1955    12       1265.5311        0.15975040
  1956     1       1737.0408        0.15930149
  1956     2       3101.4792        0.16103381
  1956     3       1985.3309        0.16237531
  1956     4       1489.4758        0.16451740
  1956     5       2457.9123        0.16249148
  1956     6       1831.3648        0.16233628
  1956     7       2107.5817        0.16320417
  1956     8       3290.6096        0.16727555
  1956     9       2818.7587        0.17078139
  1956    10       2470.3706        0.16829353
  1956    11       4322.0326        0.17178831
  1956    12       3853.1461        0.17151087
  1957     1       2594.7167        0.17181464
  1957     2       1650.6306        0.16740028
  1957     3       2128.0199        0.16712143
  1957     4       2266.7539        0.16773403
  1957     5       2895.5763        0.17085814
  1957     6       4751.0486        0.17123938
  1957     7       3483.4413        0.17085414
  1957     8       2733.2733        0.17122815
  1957     9       5213.8761        0.17307659
  1957    10       5050.0708        0.17589923
  1957    11       3359.2222        0.17773331
  1957    12       4930.9513        0.17692724
  1958     1       3490.5183        0.17310766
  1958     2       3035.5452        0.17100058
  1958     3       4907.2063        0.17033497
  1958     4       4122.7510        0.17352099
  1958     5       3076.4220        0.17155942
  1958     6       2889.4081        0.17098564
  1958     7       3832.5941        0.17133979
  1958     8       3405.4788        0.17159850
  1958     9       3844.9470        0.17392994
  1958    10       2955.4632        0.17055571
  1958    11       2351.6382        0.16911533
  1958    12       3978.4819        0.17077296
  1959     1       5573.6664        0.17490523
  1959     2       2724.3563        0.16966574
  1959     3       4182.1500        0.17041539
  1959     4       3044.5532        0.16888012
  1959     5       3295.0351        0.16992643
  1959     6       3588.7593        0.16988304
  1959     7       2962.7590        0.16926603
  1959     8       4289.5542        0.16936504
  1959     9       2758.8121        0.16736581
  1959    10       1856.3231        0.16400800
  1959    11       2769.3864        0.16545739
  1959    12       2798.8870        0.16569905
  1960     1       2905.3911        0.16673625
  1960     2       2031.3418        0.16416864
  1960     3       1424.9118        0.16275100
  1960     4       2195.4331        0.16289911
  1960     5       2218.9890        0.16334964
  1960     6       1595.6934        0.16285833
  1960     7       2245.8868        0.16351171
  1960     8       2452.8514        0.16447424
  1960     9       1598.7582        0.16309955
  1960    10       1306.0194        0.16102513
  1960    11       1709.3216        0.16089865
  1960    12       1106.3350        0.15966361
  1961     1        902.3009        0.15825961
  1961     2        429.2706        0.15590280
  1961     3        556.9017        0.15569967
  1961     4        741.7779        0.15549705
  1961     5        540.1838        0.15542368
  1961     6       1111.7478        0.15603393
  1961     7       1332.1391        0.15760573
  1961     8        511.8563        0.15691433
  1961     9       1222.8093        0.15612975
  1961    10        378.8085        0.15503734
  1961    11        335.2491        0.15392788
  1961    12        487.4010        0.15457503
  1962     1        742.8204        0.15440101
  1962     2       1004.3809        0.15468541
  1962     3        674.2697        0.15559796
  1962     4        636.9139        0.15470993
  1962     5        706.5794        0.15486022
  1962     6        391.3440        0.15445326
  1962     7        281.1463        0.15314138
  1962     8        169.3017        0.15251972
  1962     9        797.3395        0.15375676
  1962    10        460.5352        0.15382418
  1962    11        347.2600        0.15314049
  1962    12        211.7394        0.15300842
  1963     1        228.2612        0.15240190
  1963     2        213.6051        0.15294191
  1963     3        162.9426        0.15262556
  1963     4        356.4568        0.15253773
  1963     5        598.0026        0.15359002
  1963     6        438.2051        0.15344905
  1963     7        159.9399        0.15244904
  1963     8        380.2526        0.15294307
  1963     9        769.1877        0.15320704
  1963    10        512.1458        0.15320385
  1963    11        202.3604        0.15319727
  1963    12         78.8418        0.15234200
  1964     1        100.3074        0.15190235
  1964     2        108.8985        0.15212217
  1964     3        131.3981        0.15202697
  1964     4         22.1347        0.15210421
  1964     5         40.9347        0.15168345
  1964     6         35.2792        0.15180583
  1964     7         10.2804        0.15147637
  1964     8         44.8098        0.15167149
  1964     9         12.3873        0.15156510
  1964    10         22.3815        0.15189525
  1964    11         29.8576        0.15180934
  1964    12        103.3021        0.15220459
  1965     1        136.6898        0.15204014
  1965     2        125.2829        0.15210694
  1965     3         55.8165        0.15198364
  1965     4         29.6949        0.15200590
  1965     5        232.3907        0.15264481
  1965     6        118.2153        0.15275877
  1965     7        102.5280        0.15261489
  1965     8         28.0876        0.15240971
  1965     9        159.9413        0.15226076
  1965    10        224.2465        0.15284093
  1965    11        162.8200        0.15231384
  1965    12        143.8083        0.15218423
  1966     1        335.7924        0.15339351
  1966     2        243.5469        0.15334794
  1966     3        567.7283        0.15379250
  1966     4        834.1182        0.15455027
  1966     5        457.3635        0.15587214
  1966     6        398.9125        0.15535640
  1966     7        736.1221        0.15588766
  1966     8        619.1807        0.15684366
  1966     9       1000.2736        0.15632747
  1966    10        719.2005        0.15666392
  1966    11        834.2227        0.15745380
  1966    12       1091.8093        0.15808561
  1967     1       2109.0256        0.16005375
  1967     2       1762.7423        0.16134888
  1967     3       2345.2824        0.16156710
  1967     4        844.9758        0.16051826
  1967     5       1971.8806        0.15994006
  1967     6       1200.6294        0.15914722
  1967     7       1821.8671        0.16025214
  1967     8       2136.9717        0.16176124
  1967     9        947.8256        0.16012046
  1967    10       1214.0756        0.16005970
  1967    11       1703.6312        0.16071292
  1967    12       2247.5459        0.16243870
  1968     1       2831.4576        0.16547653
  1968     2       2177.3603        0.16408284
  1968     3       1279.1296        0.16097208
  1968     4       1015.5523        0.16012353
  1968     5       2102.1208        0.16141104
  1968     6       2245.8493        0.16172681
  1968     7       1619.5257        0.16100518
  1968     8       1837.5882        0.16083821
  1968     9       1525.0813        0.16074464
  1968    10       1676.7822        0.16084759
  1968    11       1357.2630        0.16068254
  1968    12       1897.1244        0.16019963
  1969     1       1756.7193        0.16111158
  1969     2       1500.2906        0.16164007
  1969     3       2402.8065        0.16373543
  1969     4       1929.6923        0.16242389
  1969     5       1569.0509        0.16283558
  1969     6       2187.9507        0.16173650
  1969     7       1342.4836        0.16157109
  1969     8       1479.0155        0.16037010
  1969     9        969.3670        0.16075841
  1969    10       1867.4945        0.16151929
  1969    11       1966.1038        0.16106808
  1969    12       1523.0349        0.16137988
  1970     1       1894.3737        0.16215089
  1970     2       2612.4112        0.16268283
  1970     3       1582.8289        0.16314755
  1970     4       2176.4713        0.16306641
  1970     5       2583.9092        0.16366084
  1970     6       1800.7579        0.16318035
  1970     7       2095.5838        0.16266306
  1970     8       1430.0122        0.16022480
  1970     9       1612.1152        0.16108109
  1970    10       1541.0029        0.16123436
  1970    11       1828.8174        0.16205012
  1970    12       1573.0150        0.16246321
  1971     1       2212.4537        0.16122142
  1971     2       1647.6343        0.15940276
  1971     3        775.1590        0.15828951
  1971     4       1049.7790        0.15749027
  1971     5        853.3456        0.15668163
  1971     6        547.8227        0.15619994
  1971     7       1378.1020        0.15739968
  1971     8       1383.1520        0.15723563
  1971     9        623.2843        0.15613268
  1971    10       1229.5938        0.15643289
  1971    11       1079.2963        0.15701224
  1971    12       1226.7871        0.15740140
  1972     1        607.5378        0.15737586
  1972     2       1618.0157        0.15909095
  1972     3       1451.4558        0.15884979
  1972     4        666.3499        0.15869495
  1972     5       1541.1298        0.15808166
  1972     6       1600.5249        0.15986081
  1972     7       1038.5211        0.15882047
  1972     8       1191.4207        0.15834394
  1972     9        686.1725        0.15787399
  1972    10       1216.2611        0.15699511
  1972    11        545.5251        0.15560950
  1972    12        707.3259        0.15489473
  1973     1        500.3561        0.15525113
  1973     2        497.1214        0.15521296
  1973     3        888.5985        0.15507252
  1973     4        922.3197        0.15593349
  1973     5        519.2939        0.15535369
  1973     6        484.4465        0.15476332
  1973     7        341.5626        0.15371735
  1973     8        276.5561        0.15348070
  1973     9       1119.8814        0.15513860
  1973    10        486.7804        0.15416066
  1973    11        284.5067        0.15304880
  1973    12        261.1043        0.15307862
  1974     1        243.8010        0.15281920
  1974     2        277.6947        0.15267014
  1974     3        142.7688        0.15303761
  1974     4        505.3779        0.15316835
  1974     5        433.5840        0.15439069
  1974     6        358.8717        0.15440546
  1974     7       1012.3626        0.15436357
  1974     8        466.4465        0.15382341
  1974     9        661.3688        0.15374703
  1974    10        783.8165        0.15413258
  1974    11        364.5743        0.15382952
  1974    12        304.0023        0.15257616
  1975     1        177.1623        0.15171051
  1975     2        120.2449        0.15135551
  1975     3         66.1776        0.15164563
  1975     4         17.9565        0.15208526
  1975     5         70.9652        0.15220731
  1975     6        121.6445        0.15179599
  1975     7        387.3644        0.15235177
  1975     8        900.6217        0.15306244
  1975     9         99.2205        0.15272194
  1975    10        145.1445        0.15240961
  1975    11        298.9331        0.15287509
  1975    12         56.6534        0.15187830
  1976     1        148.0635        0.15198067
  1976     2         18.3037        0.15153177
  1976     3        420.8222        0.15192148
  1976     4        439.7264        0.15239749
  1976     5         97.0310        0.15212434
  1976     6        102.5979        0.15175341
  1976     7          8.1399        0.15123851
  1976     8        337.4908        0.15225176
  1976     9        211.4472        0.15222113
  1976    10        210.3750        0.15270921
  1976    11        102.9223        0.15176460
  1976    12        233.8875        0.15190007
  1977     1        121.1418        0.15219956
  1977     2        222.6911        0.15338542
  1977     3         40.1918        0.15184715
  1977     4        142.1712        0.15270927
  1977     5        131.8227        0.15332340
  1977     6        695.1687        0.15418126
  1977     7        167.5621        0.15339004
  1977     8        263.3916        0.15403023
  1977     9        914.1587        0.15472415
  1977    10        638.2084        0.15532455
  1977    11        286.0698        0.15668432
  1977    12        652.8971        0.15733280
  1978     1        525.0939        0.15747403
  1978     2       1906.2925        0.15972582
  1978     3       1225.5397        0.15915594
  1978     4       1519.2007        0.16005369
  1978     5       1390.6500        0.16074815
  1978     6       1161.8570        0.16110837
  1978     7        920.2071        0.16034775
  1978     8        487.8535        0.15928144
  1978     9       2085.3003        0.16268544
  1978    10       1398.3129        0.16293273
  1978    11       1478.9083        0.16146266
  1978    12       2815.0448        0.16284516
  1979     1       2782.4665        0.16697097
  1979     2       2374.2439        0.16827857
  1979     3       1614.4094        0.16842903
  1979     4       1917.5720        0.16589667
  1979     5       1691.3461        0.16580323
  1979     6       2967.4760        0.16568667
  1979     7       1933.7984        0.16524516
  1979     8       2106.7497        0.16574516
  1979     9       2504.6413        0.16722333
  1979    10       2808.6090        0.16873548
  1979    11       3467.9190        0.17082000
  1979    12       1962.5551        0.16825161
  1980     1       2068.8481        0.16832581
  1980     2       2276.9686        0.16722069
  1980     3       1218.8945        0.16607419
  1980     4       2985.8457        0.16746333
  1980     5       3283.4894        0.16977742
  1980     6       1984.3400        0.16719667
  1980     7       2085.2620        0.16702258
  1980     8       1641.8471        0.16523226
  1980     9       2143.9507        0.16635000
  1980    10       2559.0929        0.16769032
  1980    11       3438.6693        0.16736000
  1980    12       2328.0110        0.17005806
  1981     1       1233.3184        0.16633871
  1981     2       2363.8203        0.16709286
  1981     3       2425.3519        0.16877742
  1981     4       2206.3950        0.17043000
  1981     5       2385.9494        0.16826774
  1981     6       1645.4757        0.16428333
  1981     7       3536.4838        0.16574516
  1981     8       1699.6406        0.16855806
  1981     9       2965.7663        0.17068667
  1981    10       3357.6584        0.17004194
  1981    11       2433.3946        0.16869333
  1981    12       2729.7455        0.16874839
  1982     1       1510.3584        0.16589677
  1982     2       3877.7093        0.16735357
  1982     3       4049.4471        0.16816129
  1982     4       1970.2553        0.16448667
  1982     5       1560.1735        0.16243226
  1982     6       3367.6143        0.16321667
  1982     7       2098.4894        0.16278710
  1982     8       2284.1334        0.16410323
  1982     9       1971.4633        0.16486333
  1982    10       1666.0494        0.16476452
  1982    11       1815.1333        0.16375000
  1982    12       2735.3506        0.16628710
  1983     1       1354.1652        0.16193871
  1983     2       1048.2396        0.15952500
  1983     3        925.3548        0.15888710
  1983     4       1000.3312        0.15893333
  1983     5       1591.2555        0.16053871
  1983     6       1705.3230        0.16094667
  1983     7       1024.4771        0.15972581
  1983     8        800.3535        0.16003871
  1983     9        602.0537        0.15787000
  1983    10        875.6058        0.15736452
  1983    11        205.1348        0.15536333
  1983    12        313.2568        0.15528710
  1984     1       1871.2194        0.15600968
  1984     2       2072.4597        0.15871724
  1984     3        995.9965        0.15879355
  1984     4       2179.3090        0.15829333
  1984     5       1700.6500        0.15830323
  1984     6        651.3793        0.15690333
  1984     7        307.7968        0.15581290
  1984     8        232.1045        0.15449355
  1984     9        126.1115        0.15329667
  1984    10         89.5697        0.15210000
  1984    11        279.0160        0.15188333
  1984    12        106.5194        0.15196129
  1985     1        171.5177        0.15142581
  1985     2         97.6566        0.15161786
  1985     3        138.6971        0.15150000
  1985     4        378.4863        0.15150000
  1985     5        373.6629        0.15221935
  1985     6        243.9093        0.15214667
  1985     7        374.2503        0.15237419
  1985     8         57.6881        0.15204194
  1985     9         24.0223        0.15110000
  1985    10        233.6074        0.15117097
  1985    11        113.7793        0.15114333
  1985    12         68.8552        0.15127419
  1986     1         14.2210        0.15114839
  1986     2        485.5982        0.15216071
  1986     3        165.8650        0.15191935
  1986     4        199.8197        0.15179667
  1986     5         43.9785        0.15170645
  1986     6          1.0383        0.15096333
  1986     7         95.3623        0.15121613
  1986     8         99.0516        0.15085161
  1986     9         18.0257        0.15058000
  1986    10        311.5023        0.15196452
  1986    11        122.2390        0.15188333
  1986    12         17.0237        0.15114839
  1987     1         34.3995        0.15111935
  1987     2          9.3821        0.15097143
  1987     3         95.8506        0.15134194
  1987     4        498.0720        0.15248667
  1987     5        410.9681        0.15316129
  1987     6        106.9528        0.15288333
  1987     7        223.0311        0.15341613
  1987     8        464.1084        0.15362581
  1987     9        221.3173        0.15330333
  1987    10        494.0884        0.15419355
  1987    11        423.9540        0.15511667
  1987    12        222.6719        0.15442903
  1988     1        467.8732        0.15585806
  1988     2        442.9690        0.15626897
  1988     3        896.3077        0.15656452
  1988     4       1050.8607        0.15800667
  1988     5        470.9829        0.15793548
  1988     6       1626.9927        0.15982000
  1988     7       2194.4623        0.16039032
  1988     8       1679.3194        0.16104194
  1988     9       1197.0147        0.16187000
  1988    10       1949.8697        0.16264194
  1988    11       1555.6997        0.16168333
  1988    12       2435.3006        0.16460645
  1989     1       2734.7532        0.16756774
  1989     2       2511.4693        0.16808214
  1989     3       2504.4245        0.16622903
  1989     4       1966.3150        0.16581667
  1989     5       1851.0890        0.16687742
  1989     6       3773.5890        0.17038000
  1989     7       1334.9529        0.16735161
  1989     8       2851.2352        0.16846129
  1989     9       3304.2337        0.16821667
  1989    10       1879.7813        0.16844839
  1989    11       2599.3063        0.17002667
  1989    12       2311.0745        0.16915806
  1990     1       2053.2182        0.16822258
  1990     2       1770.5975        0.16545714
  1990     3       1760.1255        0.16542258
  1990     4       1491.6557        0.16633000
  1990     5       1976.4219        0.16539677
  1990     6       1311.6987        0.16487667
  1990     7       2204.7542        0.16553871
  1990     8       3393.8603        0.16748387
  1990     9       1661.9587        0.16638667
  1990    10       1974.0610        0.16593871
  1990    11       2801.1533        0.16299000
  1990    12       2164.9494        0.16460645
  1991     1       3350.5000        0.16658387
  1991     2       3294.5104        0.16887143
  1991     3       2682.2594        0.17325806
  1991     4       1449.8273        0.16775667
  1991     5       2329.1035        0.16583226
  1991     6       2628.5627        0.16697000
  1991     7       2547.3574        0.16847742
  1991     8       2714.2110        0.16864194
  1991     9       1573.0047        0.16677667
  1991    10       3097.2506        0.16645161
  1991    11       1541.9680        0.16448333
  1991    12       3345.4094        0.16576774
  1992     1       2699.8777        0.16823548
  1992     2       3059.1972        0.16926552
  1992     3       1375.1423        0.16551935
  1992     4       1368.4980        0.16371333
  1992     5        736.7332        0.15996774
  1992     6        686.7223        0.15863667
  1992     7       1405.3868        0.15932903
  1992     8       1210.8768        0.15820968
  1992     9        770.1900        0.15770667
  1992    10       1540.5281        0.15854839
  1992    11       1487.9123        0.15967667
  1992    12       1034.8058        0.15977419
  1993     1        605.9984        0.15778710
  1993     2       1691.6236        0.15830714
  1993     3       1062.9613        0.15879355
  1993     4        800.1887        0.15750667
  1993     5        654.6458        0.15672258
  1993     6        673.2837        0.15694333
  1993     7        585.5668        0.15582258
  1993     8        398.4177        0.15507742
  1993     9        269.4647        0.15346333
  1993    10        853.9271        0.15407419
  1993    11        763.6600        0.15396667
  1993    12        694.1058        0.15485484
  1994     1       1265.6735        0.15534516
  1994     2        473.4825        0.15495714
  1994     3        206.1371        0.15421613
  1994     4        129.9960        0.15270333
  1994     5        263.4474        0.15268387
  1994     6        193.7410        0.15248667
  1994     7        327.0013        0.15269032
  1994     8        210.2416        0.15224194
  1994     9        442.2590        0.15221333
  1994    10        527.8887        0.15320323
  1994    11        189.4933        0.15272333
  1994    12        416.0294        0.15308387
  1995     1        214.2961        0.15272903
  1995     2        301.6579        0.15369286
  1995     3        415.7648        0.15310968
  1995     4        261.6923        0.15222000
  1995     5        204.8284        0.15203548
  1995     6        185.9658        0.15230333
  1995     7        175.3869        0.15225161
  1995     8        102.2206        0.15225161
  1995     9         63.4040        0.15195333
  1995    10        278.8235        0.15230000
  1995    11         99.9528        0.15194667
  1995    12         73.1287        0.15166452
  1996     1         93.1642        0.15170645
  1996     2         18.9552        0.15126897
  1996     3         71.5700        0.15103548
  1996     4         16.9607        0.15103333
  1996     5         56.3685        0.15132903
  1996     6        103.5788        0.15153667
  1996     7        148.9065        0.15166774
  1996     8        179.0265        0.15193548
  1996     9          7.3697        0.15167333
  1996    10          2.4955        0.15129032
  1996    11        372.0938        0.15184000
  1996    12         86.9531        0.15234516
  1997     1         18.1687        0.15179677
  1997     2          5.2280        0.15175714
  1997     3         46.3813        0.15194194
  1997     4         85.3667        0.15201000
  1997     5        133.5160        0.15244516
  1997     6         82.8342        0.15215000
  1997     7         35.9963        0.15216129
  1997     8        165.5316        0.15307097
  1997     9        823.6407        0.15439000
  1997    10        125.9468        0.15410000
  1997    11        550.2040        0.15491667
  1997    12        559.7429        0.15508387
  1998     1        304.1874        0.15504194
  1998     2        347.0979        0.15451071
  1998     3        824.8303        0.15564194
  1998     4        547.5767        0.15685667
  1998     5        630.8140        0.15654516
  1998     6        701.7187        0.15705000
  1998     7        729.3158        0.15887419
  1998     8       1340.3210        0.16000323
  1998     9       1419.4357        0.16000333
  1998    10        466.6968        0.15889355
  1998    11        962.5073        0.15986667
  1998    12       1120.7245        0.16145484
  1999     1        585.1884        0.16081613
  1999     2       1004.9832        0.16045000
  1999     3        639.6703        0.15928065
  1999     4        533.8390        0.15821000
  1999     5       1095.5405        0.16170323
  1999     6       1730.0540        0.16345667
  1999     7       1516.1739        0.16348387
  1999     8       1464.4258        0.16359355
  1999     9        594.7357        0.16093000
  1999    10       1881.5521        0.16270968
  1999    11       2078.7993        0.16450667
  1999    12       1675.0587        0.16365806
  2000     1        951.6261        0.16287097
  2000     2       1505.7086        0.16383793
  2000     3       2450.9171        0.16614839
  2000     4       2041.6943        0.16626000
  2000     5       2230.3961        0.16447097
  2000     6       2174.0760        0.16504333
  2000     7       2573.8642        0.16752903
  2000     8       1167.1719        0.16551935
  2000     9       2144.0253        0.16511333
  2000    10       1055.3455        0.16512903
  2000    11       1534.6927        0.16604667
  2000    12       1127.5410        0.16516129
  2001     1       1125.5690        0.16383226
  2001     2        692.0193        0.16227857
  2001     3       1808.9848        0.16347097
  2001     4       1907.2617        0.16357333
  2001     5       1169.4071        0.16242903
  2001     6       1845.8817        0.16444000
  2001     7        834.2710        0.16199355
  2001     8       1593.6923        0.16293548
  2001     9       3162.5460        0.16737667
  2001    10       2293.4600        0.16833548
  2001    11       2600.7443        0.16707000
  2001    12       2521.3306        0.17002581
  2002     1       1874.0652        0.17129355
  2002     2       1739.3989        0.16951786
  2002     3       1423.6800        0.16674839
  2002     4       2305.5063        0.16652667
  2002     5       2147.9123        0.16622903
  2002     6       1434.0960        0.16382000
  2002     7       2493.5742        0.16360645
  2002     8       2524.1690        0.16506774
  2002     9       2331.7867        0.16542667
  2002    10       1870.9455        0.16435484
  2002    11       1854.2903        0.16361667
  2002    12       1165.2658        0.16389677
  2003     1       1034.3223        0.16216129
  2003     2        437.9421        0.15945714
  2003     3       1267.0794        0.15951290
  2003     4       1187.7910        0.15907333
  2003     5        981.5616        0.15800000
  2003     6       1311.6393        0.15845333
  2003     7       1292.8139        0.15941290
  2003     8       1054.8477        0.15897419
  2003     9        625.4277        0.15805000
  2003    10       2688.2081        0.15938387
  2003    11       1360.1837        0.15938667
  2003    12        694.4835        0.15758387
  2004     1        864.6348        0.15691290
  2004     2        766.1955        0.15651724
  2004     3        727.5658        0.15656774
  2004     4        503.9290        0.15596667
  2004     5        671.6661        0.15545161
  2004     6        658.5243        0.15566000
  2004     7       1402.7439        0.15576452
  2004     8       1064.6839        0.15567742
  2004     9        545.3482        0.15556000
  2004    10        633.6319        0.15580323
  2004    11        908.0647        0.15631000
  2004    12        270.5997        0.15509355
  2005     1        972.3000        0.15466774
  2005     2        555.4054        0.15426786
  2005     3        438.7919        0.15343548
  2005     4        417.2560        0.15319333
  2005     5        845.3313        0.15443226
  2005     6        782.7287        0.15403667
  2005     7        767.1742        0.15441290
  2005     8        541.3345        0.15410323
  2005     9        613.0167        0.15339667
  2005    10         74.4740        0.15218065
  2005    11        439.5280        0.15255333
  2005    12        521.4719        0.15359032
  2006     1        177.9650        0.15257742
  2006     2         15.7332        0.15168929
  2006     3         91.5327        0.15153871
  2006     4        559.4593        0.15324333
  2006     5        197.5581        0.15315161
  2006     6        204.4670        0.15226667
  2006     7        263.0006        0.15224839
  2006     8        472.2523        0.15212903
  2006     9        176.6683        0.15220667
  2006    10         63.4010        0.15185484
  2006    11        603.0980        0.15252667
  2006    12        400.6784        0.15191613
  2007     1        421.8555        0.15185484
  2007     2        226.8871        0.15146786
  2007     3         41.5384        0.15121613
  2007     4        122.5007        0.15107667
  2007     5        280.8332        0.15151935
  2007     6        212.9233        0.15182333
  2007     7        230.2168        0.15160000
  2007     8         74.4152        0.15131613
  2007     9         20.1990        0.15071000
  2007    10          8.1116        0.15065484
  2007    11          8.4100        0.15058667
  2007    12        157.6548        0.15125161
  2008     1         16.6894        0.15130968
  2008     2         15.7014        0.15093448
  2008     3        190.3065        0.15120323
  2008     4         28.1582        0.15116667
  2008     5         16.0142        0.15100000
  2008     6         12.7482        0.15065667
  2008     7          2.6735        0.15061290
  2008     8          0.8113        0.15052258
  2008     9          5.8387        0.15048333
  2008    10         19.1071        0.15069355
  2008    11         33.7467        0.15070667
  2008    12          3.6635        0.15041452
  2009     1         12.6555        0.15036129
  2009     2          3.9743        0.15051071
  2009     3          4.7971        0.15058387
  2009     4          1.6837        0.15049667
  2009     5         10.2568        0.15094839
  2009     6         28.9327        0.15087333
  2009     7         53.2394        0.15074194
  2009     8          0.0000        0.15051613
  2009     9         40.8367        0.15069333
  2009    10         85.7377        0.15096452
  2009    11         24.0513        0.15126000
  2009    12         99.0197        0.15153871
  2010     1        206.3874        0.15212903
  2010     2        217.5279        0.15294286
  2010     3        280.4790        0.15292903
  2010     4         69.0725        0.15254000
  2010     5         66.0184        0.15234194
  2010     6         90.6732        0.15210333
  2010     7        180.2900        0.15322581
  2010     8        260.8168        0.15321935
  2010     9        383.4933        0.15365667
  2010    10        387.0231        0.15296774
  2010    11        213.6190        0.15303333
  2010    12        289.0097        0.15300968
  2011     1        243.1623        0.15297097
  2011     2        410.5114        0.15385000
  2011     3        961.9752        0.15607419
  2011     4        725.3537        0.15776333
  2011     5        333.2042        0.15607742
  2011     6        532.7383        0.15620333
  2011     7        461.1161        0.15564516
  2011     8        704.8406        0.15620000
  2011     9       1325.7497        0.15887667
  2011    10       1325.6158        0.16000000
  2011    11       1526.1523        0.16168333
  2011    12       1032.4013        0.16103548
  2012     1        968.7803        0.15928387
  2012     2        444.3266        0.15699310
  2012     3        911.7806        0.15725806
  2012     4        800.6020        0.15765000
  2012     5       1152.2445        0.15849355
  2012     6        911.3363        0.15852667
  2012     7       1346.9845        0.15862903
  2012     8        700.3116        0.15860968
  2012     9        683.7207        0.15953000
  2012    10        903.1903        0.15890968
  2012    11        825.7220        0.15847333
  2012    12        479.4690        0.15701290
  2013     1       1044.4558        0.15883226
  2013     2        454.8636        0.15677857
  2013     3        579.3697        0.15762258
  2013     4       1173.5333        0.15887000
  2013     5       1185.4255        0.16061290
  2013     6        642.5120        0.15835000
  2013     7        699.5655        0.15886452
  2013     8        638.0777        0.15907419
  2013     9        309.9420        0.15754667
  2013    10       1240.3052        0.15913871
  2013    11       1608.1703        0.16064667
  2013    12       1201.8571        0.16155806
  2014     1       1570.8529        0.16179355
  2014     2       2276.6718        0.16275000
  2014     3       1011.4735        0.16307742
  2014     4       1234.7373        0.16196333
  2014     5       1003.5771        0.16024516
  2014     6        907.1043        0.15889000
  2014     7       1369.4452        0.16098065
  2014     8        860.3497        0.16043871
  2014     9       1094.5017        0.16157000
  2014    10       1867.9858        0.16205161
  2014    11       1393.7803        0.16307333
  2014    12       1547.8155        0.16317742
