Monthly Average Facular and Sunspot Indices from calc_spot_fac_history.pro
Spot Index is Sunspot Blocking Function with Area-Independent Contrast
Facular Index is on GOME Mg index scale
Mon Apr  6 13:19:17 2015
  YEAR  MONTH        SPOTAV          FACAV
  1882     1        505.2106        0.15333269
  1882     2        975.1804        0.15459436
  1882     3       1352.6442        0.15485398
  1882     4       2517.9660        0.15564026
  1882     5       2104.8058        0.15380880
  1882     6        927.4523        0.15259399
  1882     7        694.1440        0.15282739
  1882     8        925.1323        0.15252679
  1882     9       1350.8190        0.15302040
  1882    10       1933.2087        0.15352189
  1882    11       2770.4887        0.15472777
  1882    12        476.8252        0.15337709
  1883     1       1054.9451        0.15375001
  1883     2        948.4092        0.15332096
  1883     3        754.6338        0.15316998
  1883     4       1481.7003        0.15442056
  1883     5        370.8174        0.15322223
  1883     6       1775.8158        0.15405579
  1883     7       2409.9657        0.15478839
  1883     8        716.1058        0.15389369
  1883     9       1427.8067        0.15454499
  1883    10       2000.4501        0.15553130
  1883    11       2022.3264        0.15692469
  1883    12       1638.9594        0.15665538
  1884     1       1908.6837        0.15760617
  1884     2       1804.6265        0.15755529
  1884     3       1572.1856        0.15732089
  1884     4       1880.3472        0.15608438
  1884     5       1401.8545        0.15575329
  1884     6        618.6085        0.15502602
  1884     7        717.9752        0.15427829
  1884     8        862.7967        0.15423308
  1884     9       1317.6950        0.15444033
  1884    10       1220.7337        0.15363032
  1884    11        543.9131        0.15298383
  1884    12       1114.9476        0.15364086
  1885     1        649.6826        0.15370363
  1885     2       1338.8460        0.15465032
  1885     3        945.4103        0.15338675
  1885     4       1069.0245        0.15345432
  1885     5       1271.5158        0.15533445
  1885     6       2132.5784        0.15525657
  1885     7       1321.2369        0.15453992
  1885     8        742.1639        0.15332851
  1885     9        783.0957        0.15271087
  1885    10        818.3050        0.15238011
  1885    11        524.9544        0.15184137
  1885    12        253.8223        0.15106399
  1886     1        660.9897        0.15093645
  1886     2        384.6093        0.15113505
  1886     3       1266.1125        0.15246937
  1886     4        706.6820        0.15211125
  1886     5        797.2243        0.15110053
  1886     6        435.8879        0.15099879
  1886     7        543.3474        0.15069487
  1886     8        141.0715        0.15023920
  1886     9        259.6605        0.15005843
  1886    10         76.2289        0.14904692
  1886    11          2.5099        0.14839025
  1886    12        245.9063        0.14898516
  1887     1        108.1517        0.14917908
  1887     2         83.6714        0.14936588
  1887     3         27.5059        0.14886205
  1887     4         55.7108        0.14889170
  1887     5        307.5952        0.14963070
  1887     6        354.5380        0.14990418
  1887     7        386.0630        0.15004262
  1887     8        210.5515        0.14976042
  1887     9        178.5025        0.14879822
  1887    10         83.1794        0.14872445
  1887    11         52.3995        0.14875534
  1887    12        682.1128        0.14921616
  1888     1        153.0741        0.14926971
  1888     2        117.8637        0.14860080
  1888     3        115.7191        0.14852484
  1888     4         26.7924        0.14856227
  1888     5        218.1035        0.14841782
  1888     6         50.2760        0.14845366
  1888     7         24.1726        0.14837288
  1888     8         60.5373        0.14858113
  1888     9        137.8616        0.14881986
  1888    10         10.0190        0.14833955
  1888    11        309.7131        0.14860114
  1888    12        107.3148        0.14846089
  1889     1          4.0031        0.14804228
  1889     2         45.6920        0.14825234
  1889     3         27.6352        0.14848039
  1889     4         34.9931        0.14825799
  1889     5          9.9479        0.14810875
  1889     6        260.0671        0.14844659
  1889     7        188.8759        0.14897525
  1889     8        319.7234        0.14930255
  1889     9        100.3649        0.14867232
  1889    10         14.3369        0.14819413
  1889    11          0.0000        0.14800517
  1889    12         56.4307        0.14835131
  1890     1         37.3467        0.14845451
  1890     2          1.2063        0.14814370
  1890     3         64.8183        0.14824073
  1890     4         13.8597        0.14828318
  1890     5         26.7427        0.14858704
  1890     6          9.4167        0.14843282
  1890     7        137.9410        0.14893586
  1890     8        231.8530        0.14912533
  1890     9        267.1404        0.14956888
  1890    10        260.1836        0.14906136
  1890    11        245.5408        0.14882063
  1890    12         82.1578        0.14908755
  1891     1        227.9370        0.14973109
  1891     2        334.7884        0.15058710
  1891     3        138.6108        0.15027451
  1891     4        405.3093        0.15122571
  1891     5        653.0880        0.15296937
  1891     6        738.7312        0.15342738
  1891     7       1102.0728        0.15351578
  1891     8        515.2281        0.15319581
  1891     9       1395.3982        0.15338375
  1891    10        757.4047        0.15358619
  1891    11        758.4077        0.15308981
  1891    12        563.5205        0.15278815
  1892     1       1295.3538        0.15496299
  1892     2       2114.3939        0.15494328
  1892     3        813.4520        0.15416866
  1892     4       1109.1870        0.15534148
  1892     5       1801.4163        0.15607970
  1892     6       1236.0616        0.15666521
  1892     7       2167.3458        0.15594408
  1892     8       1695.1613        0.15706427
  1892     9       1098.3208        0.15565705
  1892    10       1092.0821        0.15527083
  1892    11       1099.6984        0.15500088
  1892    12       1040.0614        0.15642470
  1893     1       1442.0565        0.15577816
  1893     2       1420.8883        0.15542942
  1893     3       1086.3967        0.15615590
  1893     4       1407.9376        0.15786561
  1893     5       1319.3461        0.15894252
  1893     6       1631.6300        0.15873989
  1893     7       1800.0323        0.15913054
  1893     8       2736.5926        0.16076505
  1893     9       2071.8438        0.15825384
  1893    10       1707.2411        0.15854935
  1893    11       1619.4360        0.15787494
  1893    12       2348.3476        0.15811261
  1894     1       1872.8251        0.16013005
  1894     2       1711.6526        0.15912445
  1894     3        741.4829        0.15707767
  1894     4       1876.2195        0.15764691
  1894     5       2036.5895        0.15914047
  1894     6       2193.9758        0.16015844
  1894     7       2040.2230        0.16031946
  1894     8       1442.3590        0.15775691
  1894     9        772.6368        0.15717119
  1894    10       1471.2824        0.15630177
  1894    11        716.9901        0.15612956
  1894    12       1153.7087        0.15594509
  1895     1       1116.4529        0.15624948
  1895     2       1078.2077        0.15713272
  1895     3       1242.4932        0.15663295
  1895     4       1209.2059        0.15690038
  1895     5       1026.9688        0.15631098
  1895     6       1356.1147        0.15615650
  1895     7        509.6281        0.15549875
  1895     8       1681.7523        0.15545996
  1895     9       1024.0531        0.15490700
  1895    10       1543.5273        0.15472693
  1895    11        854.8109        0.15487270
  1895    12       1228.1229        0.15573519
  1896     1        308.3755        0.15362448
  1896     2        986.4575        0.15367586
  1896     3        634.8643        0.15342666
  1896     4        528.7845        0.15285409
  1896     5        264.1846        0.15166671
  1896     6        999.9731        0.15240333
  1896     7        594.9618        0.15281933
  1896     8        348.2738        0.15172689
  1896     9       1390.6171        0.15251400
  1896    10        375.1985        0.15209391
  1896    11        671.6293        0.15245721
  1896    12        727.2960        0.15281709
  1897     1       1604.0723        0.15274566
  1897     2       1132.7703        0.15232878
  1897     3        598.5056        0.15239498
  1897     4        431.6224        0.15231058
  1897     5        541.1547        0.15077503
  1897     6        222.9305        0.15030916
  1897     7        222.5477        0.15145091
  1897     8        519.0787        0.15147436
  1897     9        884.2656        0.15242640
  1897    10        114.8525        0.15087281
  1897    11         36.5399        0.14978795
  1897    12        825.9667        0.15116366
  1898     1        488.1528        0.15213413
  1898     2        710.1106        0.15183782
  1898     3        778.5809        0.15127440
  1898     4        186.1029        0.15022888
  1898     5        274.5516        0.15076477
  1898     6         87.1387        0.15045674
  1898     7         65.7139        0.14973756
  1898     8        606.6335        0.15088925
  1898     9       1023.6165        0.15088898
  1898    10        779.5533        0.15133824
  1898    11        427.6213        0.15113713
  1898    12        236.2920        0.14995785
  1899     1        265.2792        0.14990919
  1899     2         66.5726        0.14931754
  1899     3        328.0552        0.14947634
  1899     4        185.9851        0.14974165
  1899     5         62.3599        0.14937291
  1899     6        280.4015        0.14973648
  1899     7        222.8812        0.14951945
  1899     8          2.0426        0.14848932
  1899     9         52.5799        0.14851262
  1899    10        108.4126        0.14885050
  1899    11         40.1203        0.14893521
  1899    12         69.3985        0.14926241
  1900     1         79.0955        0.14910426
  1900     2        137.8024        0.14917618
  1900     3        140.1374        0.14894800
  1900     4         97.6912        0.14944060
  1900     5        229.8950        0.14943382
  1900     6        139.6523        0.14927138
  1900     7         60.6168        0.14893981
  1900     8         14.5098        0.14860782
  1900     9         27.9320        0.14882168
  1900    10        157.6717        0.14885786
  1900    11         20.8791        0.14848653
  1900    12          0.0000        0.14809389
  1901     1          0.4070        0.14800741
  1901     2          6.6376        0.14812370
  1901     3         15.9543        0.14829659
  1901     4          0.0000        0.14814486
  1901     5        273.2348        0.14846604
  1901     6         58.7947        0.14871079
  1901     7          0.5819        0.14825680
  1901     8          0.0000        0.14809920
  1901     9          0.5244        0.14809298
  1901    10         15.0630        0.14831262
  1901    11         53.0216        0.14858918
  1901    12          0.0000        0.14831237
  1902     1        154.0374        0.14849884
  1902     2          0.5240        0.14830104
  1902     3        220.1617        0.14860548
  1902     4          0.0000        0.14830885
  1902     5         43.0521        0.14844822
  1902     6          4.8616        0.14843714
  1902     7          0.6101        0.14832489
  1902     8          3.8848        0.14841944
  1902     9         78.5312        0.14893760
  1902    10        199.8667        0.14940881
  1902    11        170.5669        0.14898185
  1902    12          4.3285        0.14863709
  1903     1         37.1357        0.14921731
  1903     2        138.4746        0.15023938
  1903     3        193.0450        0.15007486
  1903     4        389.3289        0.15076581
  1903     5         87.2450        0.15049119
  1903     6        140.2025        0.15048801
  1903     7        319.9079        0.15108853
  1903     8        149.1684        0.15117460
  1903     9         67.6884        0.15037389
  1903    10       1236.0989        0.15126396
  1903    11       1024.4070        0.15249176
  1903    12        629.5721        0.15378476
  1904     1        452.7160        0.15238508
  1904     2        452.5647        0.15165987
  1904     3        418.5690        0.15297065
  1904     4       1115.5843        0.15349915
  1904     5        287.6217        0.15396038
  1904     6        424.0776        0.15353391
  1904     7        610.7164        0.15391308
  1904     8        672.9608        0.15381364
  1904     9        248.9597        0.15315148
  1904    10        752.7066        0.15422274
  1904    11        424.9696        0.15420169
  1904    12        878.1613        0.15542269
  1905     1       1198.2060        0.15577659
  1905     2       2482.8572        0.15614075
  1905     3       1666.0256        0.15402398
  1905     4        523.1176        0.15357834
  1905     5        828.7711        0.15395301
  1905     6        843.5264        0.15440052
  1905     7       1743.3268        0.15506355
  1905     8       1284.4170        0.15561911
  1905     9        800.5000        0.15564641
  1905    10       2565.6356        0.15542946
  1905    11       2311.9928        0.15745607
  1905    12        911.5541        0.15602822
  1906     1        916.3634        0.15434471
  1906     2        476.0369        0.15363698
  1906     3       1248.7035        0.15523854
  1906     4        811.2048        0.15500527
  1906     5       1233.9546        0.15485864
  1906     6        824.0272        0.15593060
  1906     7       1843.6749        0.15896103
  1906     8        832.0743        0.15548443
  1906     9        647.9176        0.15472968
  1906    10         82.1261        0.15200340
  1906    11        685.7640        0.15304885
  1906    12       1269.0413        0.15548356
  1907     1       1428.6132        0.15728878
  1907     2       2931.4444        0.15793020
  1907     3        973.7311        0.15660053
  1907     4        806.2640        0.15454151
  1907     5        703.8189        0.15308416
  1907     6       1110.5627        0.15261447
  1907     7       1033.5125        0.15329878
  1907     8        852.5456        0.15534954
  1907     9       1648.1667        0.15681574
  1907    10       1396.7198        0.15635958
  1907    11       1242.2621        0.15530810
  1907    12       1218.6506        0.15424879
  1908     1        554.9354        0.15407694
  1908     2        292.7338        0.15360902
  1908     3        258.1290        0.15350710
  1908     4        820.3795        0.15481689
  1908     5        547.0547        0.15478081
  1908     6        866.3232        0.15441514
  1908     7        369.7773        0.15410762
  1908     8       2122.9998        0.15515936
  1908     9       2082.5899        0.15573361
  1908    10        425.6903        0.15373555
  1908    11        949.1934        0.15333897
  1908    12        679.0937        0.15347552
  1909     1       1492.1280        0.15434687
  1909     2        895.7349        0.15411363
  1909     3       1226.3314        0.15429728
  1909     4        617.5385        0.15290090
  1909     5        606.9244        0.15216363
  1909     6        315.0651        0.15157796
  1909     7        711.1959        0.15194831
  1909     8        161.0259        0.15215105
  1909     9        757.9864        0.15259450
  1909    10       1021.0671        0.15434347
  1909    11       1007.4067        0.15460935
  1909    12       1005.8078        0.15436901
  1910     1        490.1272        0.15281914
  1910     2        801.3531        0.15163005
  1910     3        299.8354        0.15092472
  1910     4         63.0720        0.15016683
  1910     5        398.3750        0.15084917
  1910     6         87.3732        0.15017307
  1910     7        230.8114        0.15009746
  1910     8        217.1616        0.15007457
  1910     9        424.1144        0.15096727
  1910    10        661.5967        0.15131295
  1910    11         39.4349        0.14958702
  1910    12         40.9617        0.14900797
  1911     1         46.1505        0.14890714
  1911     2         93.3230        0.14916893
  1911     3         99.2774        0.14956527
  1911     4        301.4856        0.15043884
  1911     5        113.9383        0.14991867
  1911     6         30.5365        0.14905266
  1911     7         20.6575        0.14891826
  1911     8         36.4072        0.14887606
  1911     9         70.5848        0.14876115
  1911    10         27.2950        0.14863852
  1911    11         75.4981        0.14873092
  1911    12         18.3546        0.14857081
  1912     1          0.0000        0.14833387
  1912     2          0.0000        0.14836595
  1912     3         69.2307        0.14869665
  1912     4         82.5040        0.14862390
  1912     5         27.6988        0.14873915
  1912     6         86.5731        0.14892749
  1912     7         15.5303        0.14868080
  1912     8          0.2746        0.14858943
  1912     9         59.8149        0.14904087
  1912    10         71.8255        0.14872516
  1912    11          3.7621        0.14852962
  1912    12        109.2350        0.14878132
  1913     1         12.6573        0.14868721
  1913     2         25.4617        0.14871879
  1913     3          0.3430        0.14849650
  1913     4          5.1179        0.14848502
  1913     5          0.0000        0.14837464
  1913     6          0.0000        0.14838276
  1913     7         11.0511        0.14853183
  1913     8          0.0000        0.14842922
  1913     9          3.3861        0.14851198
  1913    10         19.1835        0.14870731
  1913    11          3.0200        0.14863222
  1913    12         28.4465        0.14871551
  1914     1         13.5209        0.14882963
  1914     2         14.7909        0.14883045
  1914     3         16.8021        0.14908804
  1914     4        335.8589        0.14984208
  1914     5         54.7454        0.14960504
  1914     6        193.7664        0.14954846
  1914     7         45.5234        0.14940712
  1914     8        325.2330        0.14961915
  1914     9        371.6504        0.15025042
  1914    10         48.5595        0.15010266
  1914    11        213.5125        0.15091742
  1914    12        352.1572        0.15191923
  1915     1        348.5025        0.15246287
  1915     2        714.4243        0.15331085
  1915     3        482.2818        0.15416027
  1915     4       1099.9843        0.15359400
  1915     5        593.1301        0.15350553
  1915     6       1168.0475        0.15465587
  1915     7       1413.9758        0.15561371
  1915     8       1174.1249        0.15554133
  1915     9        906.6955        0.15477344
  1915    10        751.1569        0.15412896
  1915    11        448.3795        0.15438441
  1915    12        372.8139        0.15412483
  1916     1        624.4005        0.15523292
  1916     2        823.2237        0.15606491
  1916     3       1101.9982        0.15601493
  1916     4        928.7840        0.15654877
  1916     5       1354.2834        0.15731395
  1916     6       1287.7620        0.15667154
  1916     7        713.9448        0.15601466
  1916     8        368.3048        0.15509853
  1916     9        468.1667        0.15525907
  1916    10        868.5936        0.15547985
  1916    11        786.3627        0.15655644
  1916    12        812.0919        0.15637039
  1917     1       1251.9030        0.15788437
  1917     2       1779.3997        0.15778016
  1917     3       1334.2855        0.15885644
  1917     4       1079.1680        0.15833522
  1917     5       1854.4576        0.16045577
  1917     6       2010.2315        0.16266860
  1917     7       1950.2903        0.16312690
  1917     8       3434.0846        0.16475045
  1917     9       2141.9859        0.16294378
  1917    10       1087.1025        0.15924089
  1917    11       1252.3752        0.16004921
  1917    12       2703.7407        0.16258512
  1918     1       1996.4976        0.16057272
  1918     2        968.2343        0.15822287
  1918     3        999.2767        0.15805962
  1918     4       1153.3734        0.15845388
  1918     5       1056.5595        0.15844084
  1918     6        688.0003        0.15788436
  1918     7       1587.2674        0.16006362
  1918     8       2033.9515        0.15965999
  1918     9       1088.7560        0.15838851
  1918    10       1468.2927        0.15866900
  1918    11       1291.0368        0.15852665
  1918    12       1250.0093        0.15643124
  1919     1        767.9381        0.15541214
  1919     2       1682.3466        0.15651247
  1919     3       1409.8354        0.15629068
  1919     4        875.1611        0.15594543
  1919     5       2011.9840        0.15782142
  1919     6       2195.7411        0.16033305
  1919     7       1035.3107        0.15896932
  1919     8       1667.1004        0.15776179
  1919     9       1217.1134        0.15625651
  1919    10        912.1262        0.15533697
  1919    11        950.2576        0.15420527
  1919    12        397.9507        0.15416003
  1920     1       1512.3329        0.15375926
  1920     2        686.2444        0.15516127
  1920     3       1704.9967        0.15456046
  1920     4        350.0456        0.15265250
  1920     5        341.9048        0.15393554
  1920     6        615.5904        0.15405316
  1920     7        482.5685        0.15308615
  1920     8        190.1234        0.15216229
  1920     9        906.1715        0.15239951
  1920    10        724.6018        0.15390051
  1920    11        713.2389        0.15275525
  1920    12        534.0560        0.15273872
  1921     1        554.7874        0.15251030
  1921     2        373.3583        0.15231964
  1921     3        461.9889        0.15234795
  1921     4        470.3883        0.15274058
  1921     5        669.0083        0.15169009
  1921     6        514.5400        0.15264952
  1921     7        748.3156        0.15301313
  1921     8        352.7551        0.15153057
  1921     9        343.6925        0.15105328
  1921    10        369.9012        0.15098169
  1921    11        591.8112        0.15088458
  1921    12        518.0392        0.15095892
  1922     1         99.8926        0.15099347
  1922     2        559.9620        0.15157336
  1922     3       1533.1332        0.15280054
  1922     4         97.5491        0.15117355
  1922     5        171.2284        0.15008552
  1922     6         18.5968        0.14989870
  1922     7        171.2534        0.14998123
  1922     8         78.6759        0.14965196
  1922     9         64.7448        0.14971613
  1922    10         41.2408        0.14987137
  1922    11        175.0759        0.15004720
  1922    12        619.0449        0.15038162
  1923     1         61.9938        0.14969251
  1923     2          2.7014        0.14920748
  1923     3         22.9822        0.14922252
  1923     4         43.8135        0.14957496
  1923     5         19.3005        0.14944506
  1923     6        117.3648        0.14972504
  1923     7         32.6361        0.14945031
  1923     8          2.5226        0.14940861
  1923     9        160.0589        0.15025745
  1923    10        146.7928        0.15051289
  1923    11        127.0341        0.15009554
  1923    12         34.6431        0.14950407
  1924     1          1.7090        0.14909126
  1924     2         93.4857        0.14921445
  1924     3         25.9631        0.14938003
  1924     4        192.2123        0.15006810
  1924     5        246.4108        0.15138925
  1924     6        457.8661        0.15171042
  1924     7        417.7536        0.15236517
  1924     8        449.3703        0.15211107
  1924     9        474.8043        0.15181000
  1924    10        498.4756        0.15200960
  1924    11        622.5551        0.15125763
  1924    12        205.1156        0.15115736
  1925     1         36.8493        0.15048474
  1925     2        380.5812        0.15163263
  1925     3        261.7634        0.15160852
  1925     4        286.3213        0.15363671
  1925     5        793.3167        0.15440906
  1925     6        688.7888        0.15513951
  1925     7        549.6560        0.15457328
  1925     8        510.9453        0.15435662
  1925     9        769.0054        0.15698918
  1925    10       1463.3670        0.15734840
  1925    11       1712.8912        0.15639600
  1925    12       3840.0001        0.15938122
  1926     1       2772.1079        0.15857456
  1926     2       2046.2672        0.15757810
  1926     3       1516.5954        0.15676061
  1926     4        436.4995        0.15584482
  1926     5       1297.8183        0.15656193
  1926     6       1510.7891        0.15731978
  1926     7        996.8755        0.15631636
  1926     8        891.5092        0.15640724
  1926     9       1391.9267        0.15650850
  1926    10       1550.2364        0.15715549
  1926    11        791.9544        0.15739106
  1926    12       1683.5938        0.15841100
  1927     1       2139.8733        0.15838431
  1927     2       1721.6480        0.16057008
  1927     3        951.8632        0.15984439
  1927     4       1584.8723        0.16034502
  1927     5       1135.7195        0.15936540
  1927     6       1047.4390        0.15696564
  1927     7        980.8787        0.15629691
  1927     8       1090.3941        0.15577904
  1927     9       1325.3302        0.15722797
  1927    10        888.1038        0.15713914
  1927    11       1263.4840        0.15671284
  1927    12        634.0529        0.15536458
  1928     1       1830.2759        0.15762621
  1928     2       1283.2251        0.15845422
  1928     3       1841.1665        0.15894919
  1928     4       1597.8737        0.15895660
  1928     5       1508.9407        0.15778734
  1928     6       1676.9253        0.15906824
  1928     7       2244.9812        0.15973107
  1928     8       1615.9198        0.15997280
  1928     9       2665.8206        0.15843483
  1928    10       1197.7004        0.15739950
  1928    11        919.2048        0.15687151
  1928    12       1277.3788        0.15650684
  1929     1       1269.6093        0.15677603
  1929     2        974.9106        0.15679145
  1929     3       1236.1019        0.15574198
  1929     4       1111.4200        0.15618202
  1929     5       1052.6718        0.15713134
  1929     6       1321.8579        0.15847057
  1929     7       1238.1285        0.15891679
  1929     8        911.0970        0.15824842
  1929     9        316.8157        0.15575032
  1929    10       1670.0418        0.15547388
  1929    11       2854.8502        0.15794972
  1929    12       3776.5095        0.16123577
  1930     1       1294.0504        0.15858433
  1930     2        781.6766        0.15677227
  1930     3        799.5350        0.15422147
  1930     4        701.5355        0.15428793
  1930     5        602.9143        0.15397957
  1930     6        371.2712        0.15359376
  1930     7        176.8859        0.15329342
  1930     8        339.0866        0.15302883
  1930     9        432.7587        0.15376405
  1930    10        897.7721        0.15297959
  1930    11        778.6944        0.15308081
  1930    12        252.4079        0.15327271
  1931     1        152.6316        0.15233807
  1931     2        987.4829        0.15318928
  1931     3        691.1314        0.15343211
  1931     4        471.3419        0.15380421
  1931     5        350.3657        0.15283485
  1931     6        209.9827        0.15184708
  1931     7        136.7711        0.15207653
  1931     8         97.9768        0.15173987
  1931     9        154.7845        0.15206356
  1931    10        109.4045        0.15127068
  1931    11        330.6901        0.15150820
  1931    12        280.7345        0.15170850
  1932     1        146.0696        0.15143730
  1932     2        177.4541        0.15097047
  1932     3        166.1981        0.15097194
  1932     4        278.2792        0.15093353
  1932     5        383.7156        0.15187037
  1932     6        417.2995        0.15193815
  1932     7        129.8483        0.15118401
  1932     8         98.2395        0.15062208
  1932     9          9.6515        0.15032411
  1932    10         80.4014        0.15070401
  1932    11        100.1089        0.15047066
  1932    12        287.4034        0.15084368
  1933     1        205.6103        0.15109947
  1933     2        739.2937        0.15113075
  1933     3        186.6872        0.15069204
  1933     4         15.2699        0.15010107
  1933     5         17.6988        0.15009237
  1933     6         53.2635        0.15016129
  1933     7          8.0093        0.14999737
  1933     8          0.4898        0.14974965
  1933     9         27.8435        0.14999313
  1933    10         56.0859        0.14989889
  1933    11          1.5296        0.14973152
  1933    12          1.2800        0.14974831
  1934     1         31.0366        0.15003504
  1934     2         62.0197        0.15056972
  1934     3         17.5579        0.15041385
  1934     4        329.0157        0.15084613
  1934     5        363.3879        0.15125859
  1934     6        122.4741        0.15076364
  1934     7        107.9195        0.15096527
  1934     8        101.3222        0.15065887
  1934     9         15.1289        0.15030737
  1934    10         14.2532        0.15053461
  1934    11         85.0488        0.15076358
  1934    12        154.6988        0.15162617
  1935     1        306.0227        0.15214795
  1935     2        225.0009        0.15221764
  1935     3        239.7854        0.15254141
  1935     4        131.6635        0.15196203
  1935     5        404.1217        0.15330860
  1935     6        792.5086        0.15449853
  1935     7        592.0480        0.15408048
  1935     8        404.2333        0.15425964
  1935     9        538.4896        0.15542199
  1935    10        916.3626        0.15749349
  1935    11       1777.9512        0.15714429
  1935    12       1847.2426        0.15712593
  1936     1       1889.8119        0.15754631
  1936     2       1294.5733        0.15882262
  1936     3       1217.0563        0.15906569
  1936     4       1227.0509        0.15936455
  1936     5        636.7964        0.15804726
  1936     6        934.8206        0.15811402
  1936     7        644.4199        0.15743796
  1936     8       1114.0158        0.15917044
  1936     9        917.8139        0.15982723
  1936    10       1279.1910        0.16093288
  1936    11       2451.8515        0.16225294
  1936    12       2056.3551        0.16385880
  1937     1       2705.9606        0.16528816
  1937     2       2534.8797        0.16572560
  1937     3       1366.9399        0.16247615
  1937     4       2676.6809        0.16192485
  1937     5       2555.9895        0.16276536
  1937     6       3186.5342        0.16362413
  1937     7       3928.0806        0.16479071
  1937     8       2736.1100        0.16507875
  1937     9       1631.4699        0.16302341
  1937    10       3100.2359        0.16209946
  1937    11       1040.6990        0.16083963
  1937    12       1474.0782        0.15996170
  1938     1       2499.0189        0.16061817
  1938     2       2157.0372        0.16125264
  1938     3       1718.7737        0.16033158
  1938     4       2550.8040        0.16145664
  1938     5       2748.1485        0.16389044
  1938     6       1617.5910        0.16326718
  1938     7       3773.9974        0.16544932
  1938     8       1734.4602        0.16454567
  1938     9       1994.9760        0.16157950
  1938    10       2237.2733        0.16154118
  1938    11       2968.1337        0.16271519
  1938    12       2161.8666        0.16147788
  1939     1       1421.3017        0.16073771
  1939     2       1217.5309        0.15986638
  1939     3        854.3696        0.15974747
  1939     4       2386.3913        0.16239830
  1939     5       1983.2142        0.16414564
  1939     6       1362.5694        0.16297229
  1939     7       2402.8261        0.16080774
  1939     8       2892.9533        0.16066452
  1939     9       3637.0441        0.16047051
  1939    10       2288.4604        0.15987716
  1939    11       1503.5315        0.15800913
  1939    12        624.3892        0.15644622
  1940     1       1426.2772        0.15586833
  1940     2       1196.2031        0.15671945
  1940     3       1746.1066        0.15846287
  1940     4        752.9891        0.15823676
  1940     5        835.8612        0.15725632
  1940     6       1565.4227        0.15845251
  1940     7        963.7512        0.15878293
  1940     8       2402.6994        0.15914740
  1940     9       1161.4544        0.15750570
  1940    10       1214.1182        0.15679858
  1940    11        753.2179        0.15756410
  1940    12       1025.4898        0.15787016
  1941     1        574.5350        0.15630877
  1941     2        608.3803        0.15592053
  1941     3        627.4635        0.15567588
  1941     4        407.7517        0.15440965
  1941     5        248.1917        0.15453346
  1941     6       1004.1635        0.15581084
  1941     7       1214.9022        0.15669824
  1941     8       1052.9014        0.15689637
  1941     9       1605.9725        0.15632831
  1941    10       1095.2903        0.15512042
  1941    11        709.0595        0.15439993
  1941    12        454.5079        0.15460243
  1942     1        467.9767        0.15475806
  1942     2       1225.7889        0.15529940
  1942     3       1128.1524        0.15570303
  1942     4       1219.1403        0.15601847
  1942     5        315.0926        0.15420824
  1942     6        108.4963        0.15231946
  1942     7        240.7068        0.15206983
  1942     8        277.8738        0.15267686
  1942     9        126.1331        0.15269861
  1942    10        237.2799        0.15277154
  1942    11        664.0723        0.15335800
  1942    12        304.6712        0.15324987
  1943     1         76.1703        0.15243208
  1943     2        790.1040        0.15258736
  1943     3        736.4792        0.15259124
  1943     4        950.2072        0.15257145
  1943     5        263.7412        0.15205324
  1943     6         48.6143        0.15167305
  1943     7        285.7083        0.15173517
  1943     8        180.2486        0.15249390
  1943     9        214.4301        0.15151063
  1943    10        299.9559        0.15137333
  1943    11        149.9083        0.15152027
  1943    12        361.7025        0.15180014
  1944     1         26.8003        0.15099562
  1944     2          0.9578        0.15073766
  1944     3        172.6098        0.15112805
  1944     4          0.2405        0.15060881
  1944     5          9.2023        0.15068193
  1944     6         43.7369        0.15110395
  1944     7         17.0241        0.15129217
  1944     8        104.5943        0.15229277
  1944     9        264.8976        0.15202196
  1944    10        185.5221        0.15247214
  1944    11        207.1411        0.15245964
  1944    12        589.7556        0.15338972
  1945     1        183.4415        0.15325187
  1945     2         90.5331        0.15260723
  1945     3        607.4526        0.15286591
  1945     4        655.1985        0.15376344
  1945     5        300.8583        0.15468442
  1945     6        432.4579        0.15513859
  1945     7        590.5929        0.15514122
  1945     8        327.3396        0.15430497
  1945     9        446.9632        0.15496062
  1945    10       1272.5102        0.15712197
  1945    11        388.5248        0.15677429
  1945    12        379.9979        0.15534360
  1946     1       1266.2258        0.15653184
  1946     2       3212.8244        0.15939498
  1946     3       1507.7502        0.16001235
  1946     4       1471.1779        0.15992324
  1946     5       1380.3324        0.16034479
  1946     6        778.0766        0.16013045
  1946     7       3390.7438        0.16114293
  1946     8       2630.7066        0.16169678
  1946     9       2161.4904        0.16220278
  1946    10       1615.3494        0.16356024
  1946    11       2196.6670        0.16412583
  1946    12       2982.4991        0.16327621
  1947     1       2639.0718        0.16392983
  1947     2       3434.6107        0.16405811
  1947     3       4159.2326        0.16490285
  1947     4       4386.2667        0.16621054
  1947     5       4339.9007        0.16916790
  1947     6       2051.7736        0.16831348
  1947     7       2801.6455        0.16814785
  1947     8       3834.7542        0.16805793
  1947     9       2391.5390        0.16790067
  1947    10       2830.3817        0.16781351
  1947    11       1943.0910        0.16652631
  1947    12       1989.7830        0.16493974
  1948     1       1201.1783        0.16437121
  1948     2       1101.8019        0.16240428
  1948     3       1366.8764        0.16267888
  1948     4       3864.3566        0.16725012
  1948     5       3650.5294        0.16652932
  1948     6       3090.9240        0.16588302
  1948     7       2105.2734        0.16510452
  1948     8       2429.5771        0.16643049
  1948     9       2222.2147        0.16495234
  1948    10       1954.5626        0.16444556
  1948    11       1170.5109        0.16307080
  1948    12       2971.2065        0.16403730
  1949     1       2495.0189        0.16472322
  1949     2       4485.5578        0.16737555
  1949     3       3729.0610        0.16786439
  1949     4       2135.4582        0.16679246
  1949     5       1448.0230        0.16424109
  1949     6       1851.2054        0.16320711
  1949     7       2066.8225        0.16384762
  1949     8       2668.3038        0.16331867
  1949     9       2611.3451        0.16473571
  1949    10       2265.7051        0.16410179
  1949    11       2639.6907        0.16464171
  1949    12       1800.8597        0.16395383
  1950     1       1616.1665        0.16201351
  1950     2       2211.9163        0.16088739
  1950     3       1763.9549        0.16211418
  1950     4       2934.5691        0.16089077
  1950     5       1763.3915        0.16072703
  1950     6       1182.6632        0.15926357
  1950     7       1398.0713        0.15902431
  1950     8       1370.8803        0.15868831
  1950     9        556.2632        0.15718708
  1950    10        646.8542        0.15668437
  1950    11        930.8808        0.15621587
  1950    12        765.6529        0.15608957
  1951     1       1029.8857        0.15558842
  1951     2        693.8094        0.15628041
  1951     3        932.7835        0.15662592
  1951     4       2026.4721        0.15778470
  1951     5       3395.7110        0.15903984
  1951     6       2918.8208        0.15808340
  1951     7        875.7569        0.15744562
  1951     8        796.4816        0.15705744
  1951     9       1230.7390        0.15782823
  1951    10        865.3543        0.15644169
  1951    11        755.1184        0.15674263
  1951    12        790.5001        0.15525121
  1952     1        584.1017        0.15458414
  1952     2        384.9189        0.15332938
  1952     3        174.7822        0.15281431
  1952     4        385.3301        0.15330382
  1952     5        243.7663        0.15364701
  1952     6        468.2755        0.15456395
  1952     7        765.2656        0.15480126
  1952     8        796.5345        0.15547861
  1952     9        368.2853        0.15406435
  1952    10        423.9533        0.15303808
  1952    11        574.2448        0.15280271
  1952    12        549.7125        0.15346756
  1953     1        362.4003        0.15272054
  1953     2         12.0613        0.15207486
  1953     3         64.1889        0.15175963
  1953     4        526.5499        0.15221254
  1953     5        179.2594        0.15205330
  1953     6        279.8519        0.15190281
  1953     7         88.6747        0.15159391
  1953     8        309.8738        0.15179714
  1953     9        170.0318        0.15198363
  1953    10         54.7532        0.15165202
  1953    11          9.8659        0.15141161
  1953    12          7.4710        0.15138753
  1954     1          1.0364        0.15132456
  1954     2          1.8074        0.15124701
  1954     3        230.8635        0.15141612
  1954     4          2.4901        0.15137144
  1954     5          1.1834        0.15120992
  1954     6          2.0104        0.15112006
  1954     7         13.1937        0.15120384
  1954     8         64.6867        0.15163935
  1954     9          1.7027        0.15135386
  1954    10         14.1969        0.15212025
  1954    11         54.9516        0.15186455
  1954    12        117.8818        0.15196575
  1955     1        549.9324        0.15345995
  1955     2        290.2154        0.15299980
  1955     3         40.2656        0.15227476
  1955     4         79.7835        0.15224677
  1955     5        360.5243        0.15306829
  1955     6        507.6219        0.15360386
  1955     7        244.2830        0.15451256
  1955     8        665.3881        0.15365629
  1955     9        442.9720        0.15501686
  1955    10       1070.8862        0.15630642
  1955    11       1705.4235        0.15915610
  1955    12       1265.5311        0.15969616
  1956     1       1737.0408        0.15925003
  1956     2       3101.4792        0.16098195
  1956     3       1985.3309        0.16232445
  1956     4       1489.4758        0.16446520
  1956     5       2457.9123        0.16244816
  1956     6       1831.3648        0.16229723
  1956     7       2107.5817        0.16316696
  1956     8       3290.6096        0.16723241
  1956     9       2818.7587        0.17073381
  1956    10       2470.3706        0.16825580
  1956    11       4322.0326        0.17174633
  1956    12       3853.1461        0.17147327
  1957     1       2594.7167        0.17177932
  1957     2       1650.6306        0.16737651
  1957     3       2128.0199        0.16709953
  1957     4       2266.7539        0.16771155
  1957     5       2895.5763        0.17082953
  1957     6       4751.0486        0.17121107
  1957     7       3483.4413        0.17082787
  1957     8       2733.2733        0.17120210
  1957     9       5213.8761        0.17304733
  1957    10       5050.0708        0.17586427
  1957    11       3359.2222        0.17769493
  1957    12       4930.9513        0.17689242
  1958     1       3490.5183        0.17308390
  1958     2       3035.5452        0.17098508
  1958     3       4907.2063        0.17032410
  1958     4       4122.7510        0.17350590
  1958     5       3076.4220        0.17155213
  1958     6       2889.4081        0.17098314
  1958     7       3832.5941        0.17133980
  1958     8       3405.4788        0.17160117
  1958     9       3844.9470        0.17393045
  1958    10       2955.4632        0.17056749
  1958    11       2351.6382        0.16913376
  1958    12       3978.4819        0.17079089
  1959     1       5573.6664        0.17491544
  1959     2       2724.3563        0.16968936
  1959     3       4182.1500        0.17043799
  1959     4       3044.5532        0.16890723
  1959     5       3295.0351        0.16995176
  1959     6       3588.7593        0.16990916
  1959     7       2962.7590        0.16929459
  1959     8       4289.5542        0.16939404
  1959     9       2758.8121        0.16740038
  1959    10       1856.3231        0.16405149
  1959    11       2769.3864        0.16549806
  1959    12       2798.8870        0.16574023
  1960     1       2905.3911        0.16677358
  1960     2       2031.3418        0.16420772
  1960     3       1424.9118        0.16278960
  1960     4       2195.4331        0.16293306
  1960     5       2218.9890        0.16337825
  1960     6       1595.6934        0.16288394
  1960     7       2245.8868        0.16353141
  1960     8       2452.8514        0.16448731
  1960     9       1598.7582        0.16311173
  1960    10       1306.0194        0.16103812
  1960    11       1709.3216        0.16090753
  1960    12       1106.3350        0.15967140
  1961     1        902.3009        0.15826324
  1961     2        429.2706        0.15590098
  1961     3        556.9017        0.15568713
  1961     4        741.7779        0.15547314
  1961     5        540.1838        0.15538846
  1961     6       1111.7478        0.15598548
  1961     7       1332.1391        0.15754192
  1961     8        511.8563        0.15684050
  1961     9       1222.8093        0.15604595
  1961    10        378.8085        0.15494463
  1961    11        335.2491        0.15382607
  1961    12        487.4010        0.15446029
  1962     1        742.8204        0.15427626
  1962     2       1004.3809        0.15455302
  1962     3        674.2697        0.15545617
  1962     4        636.9139        0.15456267
  1962     5        706.5794        0.15470496
  1962     6        391.3440        0.15429173
  1962     7        281.1463        0.15297510
  1962     8        169.3017        0.15234754
  1962     9        797.3395        0.15357404
  1962    10        460.5352        0.15363376
  1962    11        347.2600        0.15294438
  1962    12        211.7394        0.15280486
  1963     1        228.2612        0.15219742
  1963     2        213.6051        0.15274123
  1963     3        162.9426        0.15243043
  1963     4        356.4568        0.15234779
  1963     5        598.0026        0.15340253
  1963     6        438.2051        0.15326696
  1963     7        159.9399        0.15227449
  1963     8        380.2526        0.15277229
  1963     9        769.1877        0.15304081
  1963    10        512.1458        0.15304265
  1963    11        202.3604        0.15304120
  1963    12         78.8418        0.15219267
  1964     1        100.3074        0.15175814
  1964     2        108.8985        0.15197941
  1964     3        131.3981        0.15188676
  1964     4         22.1347        0.15196578
  1964     5         40.9347        0.15154818
  1964     6         35.2792        0.15167220
  1964     7         10.2804        0.15134556
  1964     8         44.8098        0.15154253
  1964     9         12.3873        0.15143836
  1964    10         22.3815        0.15176990
  1964    11         29.8576        0.15168634
  1964    12        103.3021        0.15208280
  1965     1        136.6898        0.15192507
  1965     2        125.2829        0.15200275
  1965     3         55.8165        0.15189090
  1965     4         29.6949        0.15192467
  1965     5        232.3907        0.15257375
  1965     6        118.2153        0.15269900
  1965     7        102.5280        0.15256695
  1965     8         28.0876        0.15237395
  1965     9        159.9413        0.15223701
  1965    10        224.2465        0.15282746
  1965    11        162.8200        0.15231297
  1965    12        143.8083        0.15219554
  1966     1        335.7924        0.15341301
  1966     2        243.5469        0.15337748
  1966     3        567.7283        0.15383110
  1966     4        834.1182        0.15459731
  1966     5        457.3635        0.15592636
  1966     6        398.9125        0.15542233
  1966     7        736.1221        0.15596262
  1966     8        619.1807        0.15692690
  1966     9       1000.2736        0.15642233
  1966    10        719.2005        0.15676824
  1966    11        834.2227        0.15756673
  1966    12       1091.8093        0.15820720
  1967     1       2109.0256        0.16017998
  1967     2       1762.7423        0.16147910
  1967     3       2345.2824        0.16170400
  1967     4        844.9758        0.16066522
  1967     5       1971.8806        0.16009583
  1967     6       1200.6294        0.15931269
  1967     7       1821.8671        0.16042236
  1967     8       2136.9717        0.16193531
  1967     9        947.8256        0.16030589
  1967    10       1214.0756        0.16025285
  1967    11       1703.6312        0.16091209
  1967    12       2247.5459        0.16264112
  1968     1       2831.4576        0.16567822
  1968     2       2177.3603        0.16429332
  1968     3       1279.1296        0.16119542
  1968     4       1015.5523        0.16035430
  1968     5       2102.1208        0.16164403
  1968     6       2245.8493        0.16196475
  1968     7       1619.5257        0.16125016
  1968     8       1837.5882        0.16108894
  1968     9       1525.0813        0.16100135
  1968    10       1676.7822        0.16110923
  1968    11       1357.2630        0.16094986
  1968    12       1897.1244        0.16047360
  1969     1       1756.7193        0.16138743
  1969     2       1500.2906        0.16191668
  1969     3       2402.8065        0.16400944
  1969     4       1929.6923        0.16270319
  1969     5       1569.0509        0.16311616
  1969     6       2187.9507        0.16202202
  1969     7       1342.4836        0.16185932
  1969     8       1479.0155        0.16066345
  1969     9        969.3670        0.16105295
  1969    10       1867.4945        0.16181411
  1969    11       1966.1038        0.16136636
  1969    12       1523.0349        0.16167955
  1970     1       1894.3737        0.16244820
  1970     2       2612.4112        0.16297442
  1970     3       1582.8289        0.16343326
  1970     4       2176.4713        0.16334771
  1970     5       2583.9092        0.16393600
  1970     6       1800.7579        0.16345230
  1970     7       2095.5838        0.16293166
  1970     8       1430.0122        0.16049432
  1970     9       1612.1152        0.16134400
  1970    10       1541.0029        0.16149242
  1970    11       1828.8174        0.16230159
  1970    12       1573.0150        0.16270896
  1971     1       2212.4537        0.16145986
  1971     2       1647.6343        0.15962882
  1971     3        775.1590        0.15850110
  1971     4       1049.7790        0.15768626
  1971     5        853.3456        0.15686212
  1971     6        547.8227        0.15636389
  1971     7       1378.1020        0.15754334
  1971     8       1383.1520        0.15736174
  1971     9        623.2843        0.15624383
  1971    10       1229.5938        0.15652599
  1971    11       1079.2963        0.15708624
  1971    12       1226.7871        0.15745711
  1972     1        607.5378        0.15741524
  1972     2       1618.0157        0.15911270
  1972     3       1451.4558        0.15885871
  1972     4        666.3499        0.15869039
  1972     5       1541.1298        0.15806524
  1972     6       1600.5249        0.15982625
  1972     7       1038.5211        0.15877481
  1972     8       1191.4207        0.15828552
  1972     9        686.1725        0.15780307
  1972    10       1216.2611        0.15691263
  1972    11        545.5251        0.15551644
  1972    12        707.3259        0.15479019
  1973     1        500.3561        0.15513562
  1973     2        497.1214        0.15509275
  1973     3        888.5985        0.15494802
  1973     4        922.3197        0.15580192
  1973     5        519.2939        0.15521870
  1973     6        484.4465        0.15462495
  1973     7        341.5626        0.15357653
  1973     8        276.5561        0.15333544
  1973     9       1119.8814        0.15498455
  1973    10        486.7804        0.15400403
  1973    11        284.5067        0.15288995
  1973    12        261.1043        0.15291487
  1974     1        243.8010        0.15265310
  1974     2        277.6947        0.15250433
  1974     3        142.7688        0.15287053
  1974     4        505.3779        0.15300079
  1974     5        433.5840        0.15422008
  1974     6        358.8717        0.15423491
  1974     7       1012.3626        0.15419254
  1974     8        466.4465        0.15365376
  1974     9        661.3688        0.15357722
  1974    10        783.8165        0.15396162
  1974    11        364.5743        0.15365924
  1974    12        304.0023        0.15240877
  1975     1        177.1623        0.15164734
  1975     2        120.2449        0.15134439
  1975     3         66.1776        0.15165469
  1975     4         17.9565        0.15209509
  1975     5         70.9652        0.15220327
  1975     6        121.6445        0.15177385
  1975     7        387.3644        0.15231970
  1975     8        900.6217        0.15301314
  1975     9         99.2205        0.15266657
  1975    10        145.1445        0.15235420
  1975    11        298.9331        0.15284400
  1975    12         56.6534        0.15179810
  1976     1        148.0635        0.15190804
  1976     2         18.3037        0.15146860
  1976     3        420.8222        0.15186576
  1976     4        439.7264        0.15234928
  1976     5         97.0310        0.15208520
  1976     6        102.5979        0.15172351
  1976     7          8.1399        0.15121820
  1976     8        337.4908        0.15223762
  1976     9        211.4472        0.15221546
  1976    10        210.3750        0.15271085
  1976    11        102.9223        0.15177679
  1976    12        233.8875        0.15191992
  1977     1        121.1418        0.15222506
  1977     2        222.6911        0.15341197
  1977     3         40.1918        0.15188158
  1977     4        142.1712        0.15274558
  1977     5        131.8227        0.15336224
  1977     6        695.1687        0.15422194
  1977     7        167.5621        0.15343697
  1977     8        263.3916        0.15407952
  1977     9        914.1587        0.15477596
  1977    10        638.2084        0.15537844
  1977    11        286.0698        0.15673942
  1977    12        652.8971        0.15739041
  1978     1        525.0939        0.15753455
  1978     2       1906.2925        0.15978280
  1978     3       1225.5397        0.15921613
  1978     4       1519.2007        0.16011414
  1978     5       1390.6500        0.16080882
  1978     6       1161.8570        0.16117007
  1978     7        920.2071        0.16041328
  1978     8        487.8535        0.15935156
  1978     9       2085.3003        0.16274933
  1978    10       1398.3129        0.16299819
  1978    11       1478.9083        0.16147550
  1978    12       2815.0448        0.16284516
  1979     1       2782.4665        0.16697097
  1979     2       2374.2439        0.16827857
  1979     3       1614.4094        0.16842903
  1979     4       1917.5720        0.16589667
  1979     5       1691.3461        0.16580323
  1979     6       2967.4760        0.16568667
  1979     7       1933.7984        0.16524516
  1979     8       2106.7497        0.16574516
  1979     9       2504.6413        0.16722333
  1979    10       2808.6090        0.16873548
  1979    11       3467.9190        0.17082000
  1979    12       1962.5551        0.16825161
  1980     1       2068.8481        0.16832581
  1980     2       2276.9686        0.16722069
  1980     3       1218.8945        0.16607419
  1980     4       2985.8457        0.16746333
  1980     5       3283.4894        0.16977742
  1980     6       1984.3400        0.16719667
  1980     7       2085.2620        0.16702258
  1980     8       1641.8471        0.16523226
  1980     9       2143.9507        0.16635000
  1980    10       2559.0929        0.16769032
  1980    11       3438.6693        0.16736000
  1980    12       2328.0110        0.17005806
  1981     1       1233.3184        0.16633871
  1981     2       2363.8203        0.16709286
  1981     3       2425.3519        0.16877742
  1981     4       2206.3950        0.17043000
  1981     5       2385.9494        0.16826774
  1981     6       1645.4757        0.16428333
  1981     7       3536.4838        0.16574516
  1981     8       1699.6406        0.16855806
  1981     9       2965.7663        0.17068667
  1981    10       3357.6584        0.17004194
  1981    11       2433.3946        0.16869333
  1981    12       2729.7455        0.16874839
  1982     1       1510.3584        0.16589677
  1982     2       3877.7093        0.16735357
  1982     3       4049.4471        0.16816129
  1982     4       1970.2553        0.16448667
  1982     5       1560.1735        0.16243226
  1982     6       3367.6143        0.16321667
  1982     7       2098.4894        0.16278710
  1982     8       2284.1334        0.16410323
  1982     9       1971.4633        0.16486333
  1982    10       1666.0494        0.16476452
  1982    11       1815.1333        0.16375000
  1982    12       2735.3506        0.16628710
  1983     1       1354.1652        0.16193871
  1983     2       1048.2396        0.15952500
  1983     3        925.3548        0.15888710
  1983     4       1000.3312        0.15893333
  1983     5       1591.2555        0.16053871
  1983     6       1705.3230        0.16094667
  1983     7       1024.4771        0.15972581
  1983     8        800.3535        0.16003871
  1983     9        602.0537        0.15787000
  1983    10        875.6058        0.15736452
  1983    11        205.1348        0.15536333
  1983    12        313.2568        0.15528710
  1984     1       1871.2194        0.15600968
  1984     2       2072.4597        0.15871724
  1984     3        995.9965        0.15879355
  1984     4       2179.3090        0.15829333
  1984     5       1700.6500        0.15830323
  1984     6        651.3793        0.15690333
  1984     7        307.7968        0.15581290
  1984     8        232.1045        0.15449355
  1984     9        126.1115        0.15329667
  1984    10         89.5697        0.15210000
  1984    11        279.0160        0.15188333
  1984    12        106.5194        0.15196129
  1985     1        171.5177        0.15142581
  1985     2         97.6566        0.15161786
  1985     3        138.6971        0.15150000
  1985     4        378.4863        0.15150000
  1985     5        373.6629        0.15221935
  1985     6        243.9093        0.15214667
  1985     7        374.2503        0.15237419
  1985     8         57.6881        0.15204194
  1985     9         24.0223        0.15110000
  1985    10        233.6074        0.15117097
  1985    11        113.7793        0.15114333
  1985    12         68.8552        0.15127419
  1986     1         14.2210        0.15114839
  1986     2        485.5982        0.15216071
  1986     3        165.8650        0.15191935
  1986     4        199.8197        0.15179667
  1986     5         43.9785        0.15170645
  1986     6          1.0383        0.15096333
  1986     7         95.3623        0.15121613
  1986     8         99.0516        0.15085161
  1986     9         18.0257        0.15058000
  1986    10        311.5023        0.15196452
  1986    11        122.2390        0.15188333
  1986    12         17.0237        0.15114839
  1987     1         34.3995        0.15111935
  1987     2          9.3821        0.15097143
  1987     3         95.8506        0.15134194
  1987     4        498.0720        0.15248667
  1987     5        410.9681        0.15316129
  1987     6        106.9528        0.15288333
  1987     7        223.0311        0.15341613
  1987     8        464.1084        0.15362581
  1987     9        221.3173        0.15330333
  1987    10        494.0884        0.15419355
  1987    11        423.9540        0.15511667
  1987    12        222.6719        0.15442903
  1988     1        467.8732        0.15585806
  1988     2        442.9690        0.15626897
  1988     3        896.3077        0.15656452
  1988     4       1050.8607        0.15800667
  1988     5        470.9829        0.15793548
  1988     6       1626.9927        0.15982000
  1988     7       2194.4623        0.16039032
  1988     8       1679.3194        0.16104194
  1988     9       1197.0147        0.16187000
  1988    10       1949.8697        0.16264194
  1988    11       1555.6997        0.16168333
  1988    12       2435.3006        0.16460645
  1989     1       2734.7532        0.16756774
  1989     2       2511.4693        0.16808214
  1989     3       2504.4245        0.16622903
  1989     4       1966.3150        0.16581667
  1989     5       1851.0890        0.16687742
  1989     6       3773.5890        0.17038000
  1989     7       1334.9529        0.16735161
  1989     8       2851.2352        0.16846129
  1989     9       3304.2337        0.16821667
  1989    10       1879.7813        0.16844839
  1989    11       2599.3063        0.17002667
  1989    12       2311.0745        0.16915806
  1990     1       2053.2182        0.16822258
  1990     2       1770.5975        0.16545714
  1990     3       1760.1255        0.16542258
  1990     4       1491.6557        0.16633000
  1990     5       1976.4219        0.16539677
  1990     6       1311.6987        0.16487667
  1990     7       2204.7542        0.16553871
  1990     8       3393.8603        0.16748387
  1990     9       1661.9587        0.16638667
  1990    10       1974.0610        0.16593871
  1990    11       2801.1533        0.16299000
  1990    12       2164.9494        0.16460645
  1991     1       3350.5000        0.16658387
  1991     2       3294.5104        0.16887143
  1991     3       2682.2594        0.17325806
  1991     4       1449.8273        0.16775667
  1991     5       2329.1035        0.16583226
  1991     6       2628.5627        0.16697000
  1991     7       2547.3574        0.16847742
  1991     8       2714.2110        0.16864194
  1991     9       1573.0047        0.16677667
  1991    10       3097.2506        0.16645161
  1991    11       1541.9680        0.16448333
  1991    12       3345.4094        0.16576774
  1992     1       2699.8777        0.16823548
  1992     2       3059.1972        0.16926552
  1992     3       1375.1423        0.16551935
  1992     4       1368.4980        0.16371333
  1992     5        736.7332        0.15996774
  1992     6        686.7223        0.15863667
  1992     7       1405.3868        0.15932903
  1992     8       1210.8768        0.15820968
  1992     9        770.1900        0.15770667
  1992    10       1540.5281        0.15854839
  1992    11       1487.9123        0.15967667
  1992    12       1034.8058        0.15977419
  1993     1        605.9984        0.15778710
  1993     2       1691.6236        0.15830714
  1993     3       1062.9613        0.15879355
  1993     4        800.1887        0.15750667
  1993     5        654.6458        0.15672258
  1993     6        673.2837        0.15694333
  1993     7        585.5668        0.15582258
  1993     8        398.4177        0.15507742
  1993     9        269.4647        0.15346333
  1993    10        853.9271        0.15407419
  1993    11        763.6600        0.15396667
  1993    12        694.1058        0.15485484
  1994     1       1265.6735        0.15534516
  1994     2        473.4825        0.15495714
  1994     3        206.1371        0.15421613
  1994     4        129.9960        0.15270333
  1994     5        263.4474        0.15268387
  1994     6        193.7410        0.15248667
  1994     7        327.0013        0.15269032
  1994     8        210.2416        0.15224194
  1994     9        442.2590        0.15221333
  1994    10        527.8887        0.15320323
  1994    11        189.4933        0.15272333
  1994    12        416.0294        0.15308387
  1995     1        214.2961        0.15272903
  1995     2        301.6579        0.15369286
  1995     3        415.7648        0.15310968
  1995     4        261.6923        0.15222000
  1995     5        204.8284        0.15203548
  1995     6        185.9658        0.15230333
  1995     7        175.3869        0.15225161
  1995     8        102.2206        0.15225161
  1995     9         63.4040        0.15195333
  1995    10        278.8235        0.15230000
  1995    11         99.9528        0.15194667
  1995    12         73.1287        0.15166452
  1996     1         93.1642        0.15170645
  1996     2         18.9552        0.15126897
  1996     3         71.5700        0.15103548
  1996     4         16.9607        0.15103333
  1996     5         56.3685        0.15132903
  1996     6        103.5788        0.15153667
  1996     7        148.9065        0.15166774
  1996     8        179.0265        0.15193548
  1996     9          7.3697        0.15167333
  1996    10          2.4955        0.15129032
  1996    11        372.0938        0.15184000
  1996    12         86.9531        0.15234516
  1997     1         18.1687        0.15179677
  1997     2          5.2280        0.15175714
  1997     3         46.3813        0.15194194
  1997     4         85.3667        0.15201000
  1997     5        133.5160        0.15244516
  1997     6         82.8342        0.15215000
  1997     7         35.9963        0.15216129
  1997     8        165.5316        0.15307097
  1997     9        823.6407        0.15439000
  1997    10        125.9468        0.15410000
  1997    11        550.2040        0.15491667
  1997    12        559.7429        0.15508387
  1998     1        304.1874        0.15504194
  1998     2        347.0979        0.15451071
  1998     3        824.8303        0.15564194
  1998     4        547.5767        0.15685667
  1998     5        630.8140        0.15654516
  1998     6        701.7187        0.15705000
  1998     7        729.3158        0.15887419
  1998     8       1340.3210        0.16000323
  1998     9       1419.4357        0.16000333
  1998    10        466.6968        0.15889355
  1998    11        962.5073        0.15986667
  1998    12       1120.7245        0.16145484
  1999     1        585.1884        0.16081613
  1999     2       1004.9832        0.16045000
  1999     3        639.6703        0.15928065
  1999     4        533.8390        0.15821000
  1999     5       1095.5405        0.16170323
  1999     6       1730.0540        0.16345667
  1999     7       1516.1739        0.16348387
  1999     8       1464.4258        0.16359355
  1999     9        594.7357        0.16093000
  1999    10       1881.5521        0.16270968
  1999    11       2078.7993        0.16450667
  1999    12       1675.0587        0.16365806
  2000     1        951.6261        0.16287097
  2000     2       1505.7086        0.16383793
  2000     3       2450.9171        0.16614839
  2000     4       2041.6943        0.16626000
  2000     5       2230.3961        0.16447097
  2000     6       2174.0760        0.16504333
  2000     7       2573.8642        0.16752903
  2000     8       1167.1719        0.16551935
  2000     9       2144.0253        0.16511333
  2000    10       1055.3455        0.16512903
  2000    11       1534.6927        0.16604667
  2000    12       1127.5410        0.16516129
  2001     1       1125.5690        0.16383226
  2001     2        692.0193        0.16227857
  2001     3       1808.9848        0.16347097
  2001     4       1907.2617        0.16357333
  2001     5       1169.4071        0.16242903
  2001     6       1845.8817        0.16444000
  2001     7        834.2710        0.16199355
  2001     8       1593.6923        0.16293548
  2001     9       3162.5460        0.16737667
  2001    10       2293.4600        0.16833548
  2001    11       2600.7443        0.16707000
  2001    12       2521.3306        0.17002581
  2002     1       1874.0652        0.17129355
  2002     2       1739.3989        0.16951786
  2002     3       1423.6800        0.16674839
  2002     4       2305.5063        0.16652667
  2002     5       2147.9123        0.16622903
  2002     6       1434.0960        0.16382000
  2002     7       2493.5742        0.16360645
  2002     8       2524.1690        0.16506774
  2002     9       2331.7867        0.16542667
  2002    10       1870.9455        0.16435484
  2002    11       1854.2903        0.16361667
  2002    12       1165.2658        0.16389677
  2003     1       1034.3223        0.16216129
  2003     2        437.9421        0.15945714
  2003     3       1267.0794        0.15951290
  2003     4       1187.7910        0.15907333
  2003     5        981.5616        0.15800000
  2003     6       1311.6393        0.15845333
  2003     7       1292.8139        0.15941290
  2003     8       1054.8477        0.15897419
  2003     9        625.4277        0.15805000
  2003    10       2688.2081        0.15938387
  2003    11       1360.1837        0.15938667
  2003    12        694.4835        0.15758387
  2004     1        864.6348        0.15691290
  2004     2        766.1955        0.15651724
  2004     3        727.5658        0.15656774
  2004     4        503.9290        0.15596667
  2004     5        671.6661        0.15545161
  2004     6        658.5243        0.15566000
  2004     7       1402.7439        0.15576452
  2004     8       1064.6839        0.15567742
  2004     9        545.3482        0.15556000
  2004    10        633.6319        0.15580323
  2004    11        908.0647        0.15631000
  2004    12        270.5997        0.15509355
  2005     1        972.3000        0.15466774
  2005     2        555.4054        0.15426786
  2005     3        438.7919        0.15343548
  2005     4        417.2560        0.15319333
  2005     5        845.3313        0.15443226
  2005     6        782.7287        0.15403667
  2005     7        767.1742        0.15441290
  2005     8        541.3345        0.15410323
  2005     9        613.0167        0.15339667
  2005    10         74.4740        0.15218065
  2005    11        439.5280        0.15255333
  2005    12        521.4719        0.15359032
  2006     1        177.9650        0.15257742
  2006     2         15.7332        0.15168929
  2006     3         91.5327        0.15153871
  2006     4        559.4593        0.15324333
  2006     5        197.5581        0.15315161
  2006     6        204.4670        0.15226667
  2006     7        263.0006        0.15224839
  2006     8        472.2523        0.15212903
  2006     9        176.6683        0.15220667
  2006    10         63.4010        0.15185484
  2006    11        603.0980        0.15252667
  2006    12        400.6784        0.15191613
  2007     1        421.8555        0.15185484
  2007     2        226.8871        0.15146786
  2007     3         41.5384        0.15121613
  2007     4        122.5007        0.15107667
  2007     5        280.8332        0.15151935
  2007     6        212.9233        0.15182333
  2007     7        230.2168        0.15160000
  2007     8         74.4152        0.15131613
  2007     9         20.1990        0.15071000
  2007    10          8.1116        0.15065484
  2007    11          8.4100        0.15058667
  2007    12        157.6548        0.15125161
  2008     1         16.6894        0.15130968
  2008     2         15.7014        0.15093448
  2008     3        190.3065        0.15120323
  2008     4         28.1582        0.15116667
  2008     5         16.0142        0.15100000
  2008     6         12.7482        0.15065667
  2008     7          2.6735        0.15061290
  2008     8          0.8113        0.15052258
  2008     9          5.8387        0.15048333
  2008    10         19.1071        0.15069355
  2008    11         33.7467        0.15070667
  2008    12          3.6635        0.15041452
  2009     1         12.6555        0.15036129
  2009     2          3.9743        0.15051071
  2009     3          4.7971        0.15058387
  2009     4          1.6837        0.15049667
  2009     5         10.2568        0.15094839
  2009     6         28.9327        0.15087333
  2009     7         53.2394        0.15074194
  2009     8          0.0000        0.15051613
  2009     9         40.8367        0.15069333
  2009    10         85.7377        0.15096452
  2009    11         24.0513        0.15126000
  2009    12         99.0197        0.15153871
  2010     1        206.3874        0.15212903
  2010     2        217.5279        0.15294286
  2010     3        280.4790        0.15292903
  2010     4         69.0725        0.15254000
  2010     5         66.0184        0.15234194
  2010     6         90.6732        0.15210333
  2010     7        180.2900        0.15322581
  2010     8        260.8168        0.15321935
  2010     9        383.4933        0.15365667
  2010    10        387.0231        0.15296774
  2010    11        213.6190        0.15303333
  2010    12        289.0097        0.15300968
  2011     1        243.1623        0.15297097
  2011     2        410.5114        0.15385000
  2011     3        961.9752        0.15607419
  2011     4        725.3537        0.15776333
  2011     5        333.2042        0.15607742
  2011     6        532.7383        0.15620333
  2011     7        461.1161        0.15564516
  2011     8        704.8406        0.15620000
  2011     9       1325.7497        0.15887667
  2011    10       1325.6158        0.16000000
  2011    11       1526.1523        0.16168333
  2011    12       1032.4013        0.16103548
  2012     1        968.7803        0.15928387
  2012     2        444.3266        0.15699310
  2012     3        911.7806        0.15725806
  2012     4        800.6020        0.15765000
  2012     5       1152.2445        0.15849355
  2012     6        911.3363        0.15852667
  2012     7       1346.9845        0.15862903
  2012     8        700.3116        0.15860968
  2012     9        683.7207        0.15953000
  2012    10        903.1903        0.15890968
  2012    11        825.7220        0.15847333
  2012    12        479.4690        0.15701290
  2013     1       1044.4558        0.15883226
  2013     2        454.8636        0.15677857
  2013     3        579.3697        0.15762258
  2013     4       1173.5333        0.15887000
  2013     5       1185.4255        0.16061290
  2013     6        642.5120        0.15835000
  2013     7        699.5655        0.15886452
  2013     8        638.0777        0.15907419
  2013     9        309.9420        0.15754667
  2013    10       1240.3052        0.15913871
  2013    11       1608.1703        0.16064667
  2013    12       1201.8571        0.16155806
  2014     1       1570.8529        0.16179355
  2014     2       2276.6718        0.16275000
  2014     3       1011.4735        0.16307742
  2014     4       1234.7373        0.16196333
  2014     5       1003.5771        0.16024516
  2014     6        907.1043        0.15889000
  2014     7       1369.4452        0.16098065
  2014     8        860.3497        0.16043871
  2014     9       1094.5017        0.16157000
  2014    10       1867.9858        0.16205161
  2014    11       1393.7803        0.16307333
  2014    12       1547.8155        0.16317742
